aX,aY,aZ,gX,gY,gZ,gesture
0.272,-1.297,0.457,69.519,-38.818,12.39,1
0.257,-1.252,0.48,65.063,-39.307,18.494,1
0.266,-1.249,0.483,62.073,-38.452,25.94,1
0.298,-1.223,0.468,51.88,-34.729,41.26,1
0.299,-1.164,0.462,47.791,-32.959,48.157,1
0.298,-1.134,0.472,46.326,-31.189,54.138,1
0.295,-1.102,0.48,47.424,-28.931,59.082,1
0.287,-1.064,0.489,51.575,-26.306,63.477,1
0.283,-1.036,0.474,57.678,-22.278,67.627,1
0.29,-1.022,0.44,66.406,-16.968,71.96,1
0.298,-1.019,0.404,76.233,-12.085,76.233,1
0.307,-1.027,0.391,80.933,-9.827,78.796,1
0.324,-1.022,0.389,79.468,-9.766,80.139,1
0.324,-1,0.385,74.951,-11.658,79.773,1
0.338,-0.985,0.378,71.533,-13.672,79.163,1
0.332,-0.975,0.375,70.618,-15.076,78.735,1
0.319,-0.951,0.349,71.411,-15.32,78.003,1
0.335,-0.965,0.318,73.364,-15.32,77.087,1
0.346,-0.977,0.297,72.449,-16.724,76.538,1
0.36,-0.954,0.307,69.275,-19.104,75.745,1
0.362,-0.963,0.354,68.054,-21.667,74.829,1
0.376,-0.964,0.375,68.237,-23.071,73.853,1
0.375,-0.956,0.362,67.383,-23.071,72.876,1
0.387,-0.94,0.318,66.345,-22.339,72.144,1
0.396,-0.945,0.28,66.04,-21.545,72.144,1
0.416,-0.954,0.24,64.636,-22.156,71.655,1
0.426,-0.962,0.238,60.181,-23.926,70.679,1
0.414,-0.94,0.252,52.368,-26.611,70.19,1
0.406,-0.922,0.281,43.518,-29.48,69.763,1
0.398,-0.862,0.295,36.682,-30.579,68.359,1
0.385,-0.816,0.274,35.156,-29.846,68.115,1
0.377,-0.789,0.262,35.767,-28.625,67.383,1
0.373,-0.791,0.234,37.964,-27.649,67.017,1
0.402,-0.808,0.221,37.415,-26.733,67.139,1
0.408,-0.784,0.21,35.339,-26.672,65.674,1
0.415,-0.772,0.195,35.034,-26.794,62.622,1
0.423,-0.784,0.186,38.33,-25.818,62.195,1
0.424,-0.789,0.178,42.114,-23.804,62.256,1
0.429,-0.789,0.168,45.532,-21.667,60.974,1
0.429,-0.777,0.173,49.438,-20.203,58.838,1
0.421,-0.775,0.172,51.636,-18.921,56.641,1
0.429,-0.792,0.166,51.88,-18.005,54.321,1
0.436,-0.797,0.161,50.72,-18.494,51.575,1
0.439,-0.815,0.154,47.607,-18.799,49.072,1
0.461,-0.801,0.15,43.396,-19.531,46.936,1
0.465,-0.807,0.134,38.757,-21.545,45.532,1
0.468,-0.805,0.135,32.227,-24.353,43.274,1
0.46,-0.774,0.144,26.733,-26.428,40.039,1
0.463,-0.762,0.141,24.658,-27.283,37.354,1
0.472,-0.755,0.135,22.461,-27.527,34.607,1
0.469,-0.754,0.13,20.02,-27.954,30.945,1
0.475,-0.738,0.136,18.433,-28.198,27.405,1
0.472,-0.724,0.158,19.348,-27.71,25.33,1
0.462,-0.72,0.182,20.813,-26.672,23.315,1
0.466,-0.731,0.183,22.888,-25.085,21.057,1
0.489,-0.763,0.182,24.292,-23.987,19.165,1
0.497,-0.768,0.176,24.17,-22.888,16.479,1
0.504,-0.76,0.155,23.682,-22.4,14.16,1
0.5,-0.754,0.153,21.667,-21.973,12.573,1
0.495,-0.733,0.153,19.348,-21.667,9.766,1
0.523,-0.741,0.156,18.25,-21.362,8.24,1
0.524,-0.756,0.141,17.944,-21.057,6.653,1
0.531,-0.775,0.132,17.578,-20.691,5.737,1
0.533,-0.804,0.139,16.541,-20.142,4.639,1
0.542,-0.814,0.151,13.611,-18.738,2.991,1
0.533,-0.811,0.175,11.963,-17.334,2.38,1
0.531,-0.814,0.196,11.353,-15.381,2.014,1
0.533,-0.818,0.191,11.292,-12.939,2.136,1
0.536,-0.817,0.196,11.23,-10.864,2.258,1
0.538,-0.818,0.207,9.949,-9.766,2.258,1
0.537,-0.831,0.207,6.958,-9.094,1.831,1
0.549,-0.841,0.208,1.77,-9.033,1.77,1
0.558,-0.832,0.2,-4.456,-9.583,1.343,1
0.564,-0.812,0.202,-10.193,-10.62,0.732,1
0.561,-0.772,0.21,-11.597,-11.23,-0.183,1
0.55,-0.769,0.198,-8.545,-10.925,-1.282,1
0.579,-0.783,0.139,-4.395,-10.071,-2.869,1
0.604,-0.805,0.069,-0.61,-9.888,-3.418,1
0.598,-0.803,0.027,1.221,-10.437,-3.296,1
0.6,-0.809,0.019,2.502,-10.62,-3.357,1
0.588,-0.805,0.058,3.296,-11.047,-3.479,1
0.579,-0.803,0.099,5.31,-11.047,-3.601,1
0.575,-0.836,0.127,8.789,-10.132,-3.113,1
0.576,-0.86,0.153,10.742,-8.667,-1.831,1
0.586,-0.878,0.179,9.949,-7.812,-0.122,1
0.598,-0.882,0.188,7.446,-7.629,1.404,1
0.598,-0.876,0.198,4.456,-8.179,2.808,1
0.594,-0.879,0.202,2.38,-8.545,3.723,1
0.591,-0.878,0.186,1.221,-8.423,4.883,1
0.587,-0.871,0.175,1.16,-7.996,5.981,1
0.584,-0.86,0.16,1.16,-7.507,7.141,1
0.579,-0.861,0.146,0.305,-7.019,8.057,1
0.573,-0.866,0.149,-1.587,-6.287,9.033,1
0.572,-0.871,0.169,-3.967,-5.737,10.254,1
0.566,-0.869,0.187,-6.592,-5.432,10.681,1
0.558,-0.851,0.208,-8.484,-5.188,10.437,1
0.546,-0.833,0.228,-9.155,-4.15,9.949,1
0.541,-0.831,0.235,-9.155,-3.052,9.155,1
0.546,-0.834,0.224,-8.667,-1.587,8.057,1
0.548,-0.829,0.2,-8.423,0,7.202,1
0.55,-0.825,0.171,-8.24,0.854,5.981,1
0.553,-0.819,0.146,-8.362,1.404,4.822,1
0.553,-0.833,0.148,-9.277,1.709,3.662,1
0.553,-0.826,0.142,-9.766,1.77,2.869,1
0.549,-0.816,0.139,-9.338,1.587,2.319,1
0.549,-0.816,0.133,-8.606,1.587,1.709,1
0.556,-0.818,0.123,-8.362,1.343,1.343,1
0.564,-0.804,0.123,-8.606,0.671,1.343,1
0.568,-0.791,0.131,-8.179,0.061,1.16,1
0.57,-0.79,0.14,-7.324,-0.427,0.854,1
0.578,-0.783,0.145,-6.287,-0.61,0.732,1
0.582,-0.777,0.148,-5.249,-0.61,0.549,1
0.59,-0.78,0.146,-4.639,-0.427,0.488,1
0.6,-0.791,0.146,-4.15,-0.427,0.854,1
0.605,-0.786,0.159,-3.662,-0.488,1.16,1
0.606,-0.79,0.165,-2.991,-0.366,1.709,1
0.612,-0.794,0.162,-2.502,-0.488,1.709,1
0.62,-0.784,0.162,-2.319,-0.854,1.831,1
0.625,-0.787,0.18,-1.404,-0.977,1.953,1
0.431,-1.123,0.432,69.885,-51.941,48.767,1
0.42,-1.131,0.439,72.205,-48.706,51.697,1
0.426,-1.137,0.416,72.327,-45.715,55.176,1
0.42,-1.119,0.393,71.96,-43.213,59.265,1
0.413,-1.097,0.371,72.021,-40.955,63.782,1
0.414,-1.088,0.365,70.496,-39.001,66.895,1
0.413,-1.079,0.357,68.909,-37.598,69.641,1
0.408,-1.048,0.339,67.505,-36.56,72.327,1
0.419,-1.03,0.315,66.956,-35.095,73.914,1
0.418,-1.02,0.303,67.261,-33.691,73.975,1
0.405,-0.977,0.31,68.848,-32.959,72.266,1
0.395,-0.96,0.32,69.885,-31.921,71.35,1
0.386,-0.955,0.319,70.374,-30.64,70.251,1
0.392,-0.931,0.314,70.374,-29.663,69.885,1
0.395,-0.921,0.286,70.862,-29.114,70.007,1
0.387,-0.89,0.23,71.96,-28.137,70.435,1
0.381,-0.854,0.184,72.754,-27.466,70.19,1
0.376,-0.865,0.188,72.327,-29.175,69.275,1
0.374,-0.866,0.209,69.336,-29.724,68.359,1
0.388,-0.856,0.207,64.88,-30.212,67.444,1
0.384,-0.828,0.216,60.547,-30.029,67.139,1
0.375,-0.8,0.229,59.998,-29.236,67.383,1
0.369,-0.822,0.24,60.303,-28.625,66.895,1
0.37,-0.814,0.236,57.922,-28.564,66.223,1
0.374,-0.794,0.201,54.016,-28.259,65.491,1
0.393,-0.787,0.179,49.011,-28.32,64.697,1
0.387,-0.773,0.17,45.227,-28.809,63.477,1
0.387,-0.752,0.179,40.833,-29.419,61.218,1
0.392,-0.751,0.173,37.354,-29.175,59.021,1
0.408,-0.753,0.165,34.058,-28.931,56.641,1
0.399,-0.736,0.165,30.579,-29.175,53.04,1
0.395,-0.74,0.16,29.053,-28.748,49.927,1
0.416,-0.731,0.177,26.001,-27.649,46.936,1
0.41,-0.728,0.173,23.315,-27.1,43.823,1
0.417,-0.717,0.171,20.325,-26.55,40.771,1
0.424,-0.703,0.168,17.456,-25.879,37.964,1
0.425,-0.688,0.154,15.564,-25.513,34.973,1
0.436,-0.702,0.143,14.404,-25.024,31.982,1
0.444,-0.701,0.143,12.756,-24.353,29.419,1
0.448,-0.712,0.146,11.414,-24.109,27.161,1
0.456,-0.709,0.144,10.132,-23.743,25.146,1
0.466,-0.733,0.153,7.812,-23.499,23.987,1
0.469,-0.752,0.144,6.531,-23.01,22.827,1
0.48,-0.752,0.13,5.371,-22.095,20.63,1
0.483,-0.742,0.116,4.211,-21.057,18.616,1
0.496,-0.723,0.078,4.944,-19.653,16.479,1
0.502,-0.713,0.077,5.554,-18.372,14.587,1
0.512,-0.719,0.083,8.24,-16.907,13.245,1
0.531,-0.746,0.094,10.864,-14.587,11.841,1
0.551,-0.755,0.11,12.512,-12.695,10.559,1
0.557,-0.783,0.119,14.343,-11.597,10.62,1
0.577,-0.8,0.124,13.611,-11.108,9.949,1
0.58,-0.792,0.129,10.376,-10.742,8.24,1
0.578,-0.787,0.13,6.226,-10.681,7.446,1
0.574,-0.778,0.142,2.075,-10.498,6.653,1
0.583,-0.779,0.152,1.099,-10.376,5.798,1
0.573,-0.771,0.172,1.099,-10.01,4.639,1
0.564,-0.779,0.182,1.892,-9.46,3.601,1
0.573,-0.8,0.171,1.77,-8.789,2.869,1
0.586,-0.819,0.133,0,-8.484,2.441,1
0.605,-0.832,0.099,-3.113,-9.277,2.258,1
0.618,-0.825,0.068,-7.751,-10.986,2.258,1
0.634,-0.796,0.085,-12.634,-13.062,2.502,1
0.581,-0.774,0.101,-12.024,-14.465,2.93,1
0.601,-0.77,0.115,-7.507,-13.245,0.671,1
0.61,-0.785,0.111,-2.747,-11.414,-0.732,1
0.626,-0.812,0.093,0.366,-10.62,-0.732,1
0.621,-0.814,0.092,1.526,-10.559,0.061,1
0.631,-0.82,0.097,1.831,-10.803,0.061,1
0.641,-0.836,0.107,1.099,-11.536,0,1
0.631,-0.827,0.118,-1.16,-12.756,0.732,1
0.615,-0.805,0.129,-2.563,-13.489,1.404,1
0.62,-0.803,0.126,-1.221,-13,1.831,1
0.617,-0.804,0.125,1.648,-11.719,2.075,1
0.614,-0.826,0.143,5.127,-10.925,2.441,1
0.602,-0.843,0.169,7.629,-9.888,3.113,1
0.593,-0.859,0.185,7.874,-8.911,3.784,1
0.589,-0.873,0.193,5.981,-8.301,4.7,1
0.593,-0.865,0.196,2.38,-8.362,5.615,1
0.598,-0.849,0.175,-0.61,-8.85,6.47,1
0.596,-0.835,0.167,-2.197,-9.094,7.507,1
0.577,-0.82,0.165,-2.747,-9.094,8.301,1
0.587,-0.81,0.156,-2.93,-8.606,8.057,1
0.592,-0.798,0.14,-2.747,-7.874,7.324,1
0.59,-0.805,0.141,-2.625,-7.69,6.714,1
0.582,-0.817,0.146,-2.502,-7.568,6.653,1
0.577,-0.835,0.157,-2.258,-7.141,6.836,1
0.584,-0.838,0.171,-2.93,-6.531,7.019,1
0.579,-0.826,0.178,-4.089,-6.165,7.324,1
0.562,-0.805,0.184,-5.249,-5.676,7.446,1
0.558,-0.796,0.191,-5.249,-4.333,7.629,1
0.568,-0.803,0.191,-4.333,-2.686,7.385,1
0.574,-0.812,0.179,-4.089,-1.282,7.202,1
0.579,-0.807,0.168,-4.028,-0.305,6.897,1
0.581,-0.8,0.169,-4.395,0.183,6.226,1
0.583,-0.797,0.169,-5.249,0.244,5.066,1
0.582,-0.789,0.159,-5.737,0.183,3.723,1
0.582,-0.779,0.161,-5.615,0.366,2.319,1
0.583,-0.783,0.154,-5.188,0.305,1.038,1
0.583,-0.794,0.151,-5.249,0.366,0.061,1
0.582,-0.789,0.155,-5.92,0.488,-0.671,1
0.579,-0.778,0.149,-6.348,0.549,-1.282,1
0.577,-0.768,0.141,-4.883,0.916,-1.892,1
0.581,-0.78,0.141,-2.686,1.77,-2.319,1
0.584,-0.786,0.143,-2.014,2.625,-2.319,1
0.586,-0.782,0.144,-1.953,3.235,-2.197,1
0.592,-0.788,0.151,-1.16,3.54,-2.502,1
0.589,-0.789,0.158,-0.793,3.784,-2.625,1
0.588,-0.791,0.164,-0.854,3.54,-2.563,1
0.601,-0.797,0.168,-0.793,3.723,-2.502,1
0.604,-0.793,0.168,-1.16,3.845,-2.563,1
0.61,-0.792,0.166,-1.16,4.15,-2.563,1
0.614,-0.788,0.164,-1.221,4.211,-2.808,1
0.618,-0.781,0.152,-1.099,4.028,-3.052,1
0.618,-0.789,0.154,-0.671,3.784,-3.357,1
0.614,-0.784,0.156,-0.671,3.845,-3.174,1
0.613,-0.789,0.147,-0.488,4.211,-3.235,1
0.614,-0.799,0.132,-0.122,4.028,-3.235,1
0.614,-0.81,0.124,0.122,3.723,-3.113,1
0.343,-1.314,0.402,79.651,-37.903,26.855,1
0.338,-1.266,0.427,80.261,-37.109,34.18,1
0.335,-1.233,0.439,84.473,-34.241,41.26,1
0.338,-1.222,0.429,89.294,-30.945,48.218,1
0.356,-1.231,0.399,89.844,-29.236,53.955,1
0.351,-1.208,0.38,87.769,-28.809,59.265,1
0.347,-1.172,0.374,82.764,-28.503,64.087,1
0.351,-1.135,0.369,76.355,-29.297,67.627,1
0.357,-1.086,0.362,71.594,-31.067,70.801,1
0.346,-1.041,0.366,68.42,-33.142,73.364,1
0.335,-1.017,0.354,67.505,-34.607,75.073,1
0.342,-1.008,0.334,69.153,-34.729,77.332,1
0.336,-0.99,0.321,71.838,-34.912,78.796,1
0.329,-0.986,0.322,71.411,-35.583,79.407,1
0.339,-0.956,0.302,69.153,-35.828,79.407,1
0.35,-0.941,0.296,66.406,-36.56,78.308,1
0.353,-0.931,0.302,64.514,-37.17,76.477,1
0.347,-0.923,0.322,63.049,-37.415,74.646,1
0.344,-0.899,0.342,61.584,-37.598,72.571,1
0.332,-0.883,0.356,60.608,-38.147,70.618,1
0.344,-0.889,0.363,57.922,-38.94,67.81,1
0.343,-0.872,0.34,55.359,-39.856,65.674,1
0.354,-0.862,0.319,53.162,-40.1,64.392,1
0.36,-0.864,0.278,51.758,-40.039,63.293,1
0.364,-0.853,0.246,49.927,-39.551,62.5,1
0.364,-0.863,0.235,48.218,-39.307,62.012,1
0.368,-0.863,0.23,45.288,-38.757,60.669,1
0.387,-0.848,0.255,41.748,-37.659,58.167,1
0.369,-0.836,0.289,39.795,-37.476,56.396,1
0.361,-0.818,0.324,39.124,-36.804,55.359,1
0.346,-0.809,0.341,42.053,-34.18,54.565,1
0.36,-0.834,0.331,45.227,-30.457,54.26,1
0.377,-0.853,0.299,46.204,-27.771,53.467,1
0.376,-0.845,0.274,44.189,-26.672,52.795,1
0.392,-0.848,0.251,40.039,-26.306,52.673,1
0.401,-0.83,0.227,36.499,-26.184,52.368,1
0.4,-0.81,0.201,33.752,-26.245,51.27,1
0.404,-0.799,0.191,31.799,-25.635,50.232,1
0.411,-0.809,0.195,31.494,-24.536,49.866,1
0.419,-0.825,0.208,31.006,-23.926,48.096,1
0.434,-0.835,0.216,29.114,-23.193,46.448,1
0.433,-0.825,0.218,27.283,-22.217,45.898,1
0.441,-0.82,0.229,24.292,-21.545,44.678,1
0.443,-0.806,0.227,20.752,-21.118,43.64,1
0.445,-0.79,0.206,17.517,-21.179,42.114,1
0.434,-0.785,0.197,13.306,-21.362,40.894,1
0.453,-0.75,0.199,10.559,-21.301,39.612,1
0.45,-0.761,0.206,8.789,-21.423,37.842,1
0.452,-0.747,0.203,6.775,-21.362,35.461,1
0.466,-0.749,0.187,5.127,-21.301,33.264,1
0.475,-0.753,0.169,3.296,-21.362,30.945,1
0.478,-0.737,0.156,2.38,-21.362,28.992,1
0.49,-0.731,0.149,3.723,-21.057,26.978,1
0.483,-0.723,0.151,4.578,-20.447,24.414,1
0.492,-0.734,0.16,5.371,-20.081,21.851,1
0.501,-0.736,0.173,6.836,-19.165,19.836,1
0.5,-0.739,0.18,8.728,-17.578,17.639,1
0.511,-0.746,0.162,10.559,-15.93,15.869,1
0.519,-0.759,0.158,12.207,-15.015,14.587,1
0.526,-0.771,0.167,13.306,-14.526,13.062,1
0.532,-0.778,0.171,14.16,-13.977,11.353,1
0.533,-0.786,0.176,14.099,-13.855,9.644,1
0.551,-0.79,0.177,13.489,-13.672,8.606,1
0.539,-0.801,0.172,12.573,-13.367,9.583,1
0.556,-0.806,0.169,12.268,-13.123,8.972,1
0.559,-0.788,0.166,10.071,-12.329,6.287,1
0.557,-0.79,0.164,9.155,-12.085,5.188,1
0.556,-0.799,0.171,8.667,-11.597,4.7,1
0.559,-0.813,0.191,7.446,-11.047,4.517,1
0.559,-0.819,0.202,6.165,-10.559,4.517,1
0.563,-0.837,0.209,4.883,-10.498,4.028,1
0.576,-0.845,0.2,2.136,-10.437,3.967,1
0.602,-0.835,0.202,-1.892,-10.986,4.089,1
0.565,-0.806,0.206,-3.906,-11.047,5.127,1
0.563,-0.789,0.205,-2.502,-10.071,4.211,1
0.572,-0.785,0.207,0,-8.545,2.686,1
0.571,-0.797,0.199,2.747,-6.775,2.075,1
0.58,-0.82,0.199,4.639,-5.249,1.953,1
0.583,-0.839,0.208,4.639,-4.272,2.014,1
0.583,-0.846,0.208,2.747,-4.272,2.075,1
0.576,-0.837,0.202,0.549,-5.066,2.014,1
0.571,-0.822,0.198,-0.366,-5.737,2.686,1
0.565,-0.813,0.2,0.244,-5.615,2.991,1
0.556,-0.814,0.189,1.709,-5.188,3.235,1
0.564,-0.823,0.177,2.808,-3.906,3.296,1
0.565,-0.836,0.175,3.235,-2.747,3.418,1
0.566,-0.849,0.179,3.174,-2.136,3.662,1
0.568,-0.856,0.179,2.197,-2.075,4.089,1
0.568,-0.855,0.18,0.732,-1.953,4.272,1
0.569,-0.853,0.191,-1.16,-2.075,4.395,1
0.565,-0.84,0.205,-2.441,-2.197,4.272,1
0.565,-0.831,0.209,-2.93,-2.014,3.662,1
0.568,-0.829,0.205,-2.563,-1.465,3.052,1
0.567,-0.82,0.198,-2.441,-0.671,2.808,1
0.569,-0.819,0.19,-2.991,0.061,2.136,1
0.574,-0.82,0.184,-3.662,0.488,1.709,1
0.579,-0.812,0.184,-4.456,0.488,1.282,1
0.578,-0.807,0.192,-4.578,0.244,0.305,1
0.579,-0.808,0.202,-4.761,0.061,-0.671,1
0.583,-0.81,0.202,-5.005,0.061,-1.404,1
0.583,-0.803,0.203,-5.554,-0.061,-1.953,1
0.589,-0.809,0.2,-5.432,-0.183,-2.258,1
0.592,-0.811,0.196,-4.761,-0.427,-2.502,1
0.59,-0.809,0.185,-4.211,-0.671,-2.808,1
0.592,-0.806,0.176,-4.089,-0.793,-2.808,1
0.595,-0.812,0.172,-3.174,-1.038,-2.808,1
0.595,-0.817,0.163,-2.197,-1.465,-2.747,1
0.597,-0.824,0.154,-2.075,-1.587,-2.625,1
0.6,-0.829,0.152,-2.869,-1.953,-2.014,1
0.602,-0.821,0.158,-4.517,-2.563,-1.465,1
0.6,-0.818,0.167,-5.066,-3.113,-0.732,1
0.599,-0.812,0.172,-4.639,-3.54,0,1
0.599,-0.814,0.173,-3.723,-4.028,0.61,1
0.599,-0.818,0.177,-3.052,-4.211,1.465,1
0.594,-0.812,0.183,-4.211,-4.761,2.014,1
0.594,-0.814,0.193,-4.761,-5.188,2.747,1
0.589,-0.81,0.2,-4.517,-5.371,3.235,1
0.588,-0.804,0.202,-4.211,-5.188,4.028,1
0.587,-0.799,0.201,-3.967,-4.517,4.578,1
0.436,-1.274,0.27,63.171,-22.827,-10.986,1
0.394,-1.268,0.219,55.481,-26.123,-1.831,1
0.376,-1.323,0.208,51.086,-31.25,3.967,1
0.444,-1.329,0.255,40.039,-33.325,6.714,1
0.475,-1.237,0.31,32.837,-36.804,12.939,1
0.447,-1.195,0.353,32.349,-41.016,16.357,1
0.439,-1.184,0.359,36.011,-42.358,19.714,1
0.44,-1.15,0.343,43.518,-41.565,24.658,1
0.444,-1.126,0.342,52.124,-39.429,29.602,1
0.452,-1.11,0.333,62.744,-36.377,34.729,1
0.467,-1.136,0.344,72.693,-33.02,39.673,1
0.492,-1.155,0.351,79.407,-29.724,42.786,1
0.516,-1.164,0.365,80.383,-28.687,44.495,1
0.527,-1.17,0.391,77.454,-29.602,45.654,1
0.516,-1.135,0.398,73.425,-31.189,46.448,1
0.491,-1.116,0.397,69.275,-32.532,48.096,1
0.476,-1.098,0.381,67.017,-32.227,49.622,1
0.468,-1.094,0.351,63.354,-32.166,52.612,1
0.471,-1.088,0.328,57.434,-33.264,55.237,1
0.457,-1.05,0.308,51.025,-34.607,57.129,1
0.438,-1.006,0.301,47.363,-35.217,59.021,1
0.423,-0.996,0.31,44.8,-35.889,59.326,1
0.42,-0.976,0.318,41.87,-36.621,58.594,1
0.402,-0.921,0.31,39.917,-36.804,57.068,1
0.388,-0.886,0.309,40.588,-35.767,55.481,1
0.383,-0.861,0.289,44.8,-33.752,54.382,1
0.395,-0.873,0.261,49.072,-31.677,53.894,1
0.405,-0.878,0.226,51.392,-30.396,52.002,1
0.419,-0.869,0.204,51.147,-29.907,50.598,1
0.422,-0.864,0.197,48.645,-30.457,49.133,1
0.42,-0.845,0.202,47.668,-30.579,48.645,1
0.411,-0.833,0.205,48.401,-30.029,47.18,1
0.403,-0.827,0.215,50.72,-28.015,45.898,1
0.401,-0.818,0.214,53.65,-25.085,44.556,1
0.419,-0.808,0.204,56.519,-22.278,43.274,1
0.427,-0.831,0.184,58.289,-22.095,42.419,1
0.437,-0.84,0.15,59.57,-22.156,41.992,1
0.424,-0.823,0.131,61.401,-21.545,42.419,1
0.433,-0.835,0.123,63.721,-20.447,43.762,1
0.435,-0.817,0.111,65.918,-19.897,44.8,1
0.436,-0.831,0.11,66.284,-19.409,45.288,1
0.448,-0.835,0.109,64.27,-19.714,45.471,1
0.45,-0.849,0.118,59.326,-20.874,45.837,1
0.453,-0.855,0.114,53.162,-22.583,45.898,1
0.444,-0.837,0.113,46.326,-24.414,45.227,1
0.438,-0.816,0.101,39.49,-26.123,44.373,1
0.444,-0.804,0.094,32.288,-28.32,43.762,1
0.449,-0.795,0.079,27.527,-30.151,43.091,1
0.46,-0.785,0.074,23.621,-31.86,42.053,1
0.453,-0.779,0.076,21.057,-33.508,40.161,1
0.459,-0.77,0.079,19.714,-34.119,38.513,1
0.451,-0.75,0.07,18.982,-33.936,38.33,1
0.46,-0.759,0.09,18.738,-33.691,38.147,1
0.463,-0.751,0.113,18.127,-33.691,35.645,1
0.46,-0.757,0.129,17.822,-33.203,33.936,1
0.467,-0.762,0.144,17.273,-32.349,33.081,1
0.464,-0.769,0.156,15.808,-31.921,33.142,1
0.464,-0.77,0.158,13.184,-32.043,32.959,1
0.467,-0.763,0.162,10.559,-31.982,31.25,1
0.473,-0.74,0.157,8.362,-31.86,29.236,1
0.475,-0.737,0.136,7.629,-31.555,28.076,1
0.479,-0.733,0.12,6.287,-30.945,26.978,1
0.492,-0.73,0.103,5.371,-29.846,25.208,1
0.505,-0.727,0.103,5.249,-28.87,23.071,1
0.513,-0.727,0.108,5.127,-27.954,20.935,1
0.523,-0.729,0.122,5.798,-26.672,18.799,1
0.527,-0.752,0.133,5.859,-25.208,17.151,1
0.532,-0.754,0.148,3.54,-23.621,15.625,1
0.545,-0.748,0.159,1.892,-22.4,14.343,1
0.564,-0.736,0.173,2.075,-21.545,12.817,1
0.527,-0.749,0.182,4.089,-20.874,12.512,1
0.558,-0.749,0.182,5.859,-19.592,10.62,1
0.584,-0.764,0.17,6.042,-18.433,8.972,1
0.589,-0.787,0.164,3.601,-18.494,8.179,1
0.598,-0.765,0.164,-0.122,-19.043,7.263,1
0.606,-0.758,0.146,-2.014,-18.982,5.371,1
0.62,-0.756,0.147,-2.441,-18.555,3.418,1
0.608,-0.762,0.15,-1.831,-17.761,2.319,1
0.614,-0.75,0.162,0.183,-16.541,1.038,1
0.617,-0.754,0.172,3.662,-14.893,0,1
0.612,-0.762,0.166,7.629,-13,-1.038,1
0.625,-0.782,0.14,10.925,-11.414,-2.258,1
0.632,-0.799,0.128,12.451,-10.864,-2.441,1
0.635,-0.802,0.121,12.085,-11.108,-2.625,1
0.633,-0.813,0.125,10.62,-11.841,-2.869,1
0.629,-0.813,0.14,8.789,-12.268,-3.052,1
0.623,-0.822,0.156,7.629,-12.695,-3.296,1
0.625,-0.832,0.176,7.08,-12.817,-3.052,1
0.59,-0.838,0.187,6.775,-12.634,-2.075,1
0.605,-0.84,0.193,6.409,-11.353,-1.526,1
0.597,-0.83,0.191,3.418,-10.132,0.061,1
0.597,-0.814,0.17,2.136,-9.644,0.61,1
0.597,-0.821,0.162,2.014,-9.399,0.854,1
0.607,-0.818,0.163,1.526,-9.583,1.587,1
0.576,-0.829,0.169,0.61,-9.888,2.747,1
0.585,-0.84,0.177,-0.061,-9.216,3.235,1
0.593,-0.844,0.197,-1.587,-8.911,3.723,1
0.567,-0.84,0.221,-2.991,-9.094,5.005,1
0.558,-0.836,0.232,-3.418,-8.85,5.981,1
0.56,-0.829,0.232,-4.028,-7.874,6.47,1
0.568,-0.829,0.226,-5.798,-7.019,6.958,1
0.59,-0.819,0.226,-8.118,-6.287,7.812,1
0.561,-0.807,0.209,-9.644,-5.188,8.728,1
0.565,-0.79,0.194,-10.498,-3.479,8.667,1
0.575,-0.789,0.183,-10.925,-2.014,8.362,1
0.589,-0.788,0.165,-11.719,-1.221,7.996,1
0.589,-0.782,0.132,-12.085,-0.671,7.812,1
0.584,-0.774,0.12,-12.268,-0.977,7.69,1
0.597,-0.774,0.124,-12.573,-1.465,7.385,1
0.6,-0.777,0.131,-12.939,-2.136,6.592,1
0.596,-0.758,0.147,-12.756,-2.747,5.92,1
0.589,-0.754,0.153,-9.705,-2.808,5.615,1
0.601,-0.766,0.145,-5.493,-2.319,4.883,1
0.609,-0.785,0.137,-3.235,-2.136,4.395,1
0.621,-0.801,0.136,-4.333,-3.052,3.784,1
0.615,-0.77,0.141,-6.531,-4.456,2.686,1
0.612,-0.764,0.164,-6.897,-5.432,1.282,1
0.614,-0.79,0.178,-5.554,-5.554,0.366,1
0.616,-0.786,0.177,-3.54,-5.066,0,1
0.145,-1.343,0.489,61.157,-38.94,16.602,1
0.137,-1.322,0.459,66.833,-36.926,26.245,1
0.145,-1.328,0.429,67.932,-34.241,34.79,1
0.192,-1.307,0.403,64.148,-31.311,44.739,1
0.228,-1.292,0.402,58.96,-29.663,54.749,1
0.222,-1.3,0.406,54.016,-29.602,62.866,1
0.195,-1.245,0.419,52.063,-28.564,69.214,1
0.182,-1.197,0.431,53.223,-26.062,73.425,1
0.182,-1.177,0.423,53.894,-23.682,77.332,1
0.181,-1.163,0.429,51.147,-22.339,81.848,1
0.184,-1.129,0.423,46.204,-21.973,85.876,1
0.174,-1.067,0.42,43.091,-21.301,88.684,1
0.165,-1.012,0.415,44.373,-20.996,89.966,1
0.16,-1.002,0.393,46.936,-20.752,90.088,1
0.161,-0.994,0.366,49.255,-19.958,91.125,1
0.188,-0.985,0.352,49.805,-19.287,90.942,1
0.201,-0.965,0.339,49.927,-19.043,89.417,1
0.203,-0.939,0.323,52.002,-18.738,87.83,1
0.202,-0.922,0.311,55.786,-18.066,85.266,1
0.214,-0.934,0.304,57.434,-17.578,83.435,1
0.221,-0.931,0.306,55.237,-18.311,80.261,1
0.226,-0.915,0.318,51.086,-19.287,77.393,1
0.228,-0.905,0.287,47.607,-19.958,74.951,1
0.222,-0.88,0.265,47.302,-19.47,73.303,1
0.225,-0.885,0.244,48.157,-18.921,71.838,1
0.239,-0.889,0.228,45.41,-19.226,70.557,1
0.251,-0.878,0.223,41.382,-19.653,69.519,1
0.269,-0.873,0.235,36.377,-20.386,67.688,1
0.266,-0.851,0.242,32.959,-20.752,65.552,1
0.269,-0.844,0.256,31.616,-20.508,63.782,1
0.274,-0.855,0.26,30.518,-20.142,61.584,1
0.304,-0.862,0.257,28.992,-19.287,59.998,1
0.317,-0.848,0.242,26.001,-19.592,57.678,1
0.307,-0.82,0.239,22.644,-20.752,54.199,1
0.291,-0.79,0.228,20.142,-21.301,50.537,1
0.314,-0.772,0.187,19.531,-19.897,48.34,1
0.344,-0.786,0.155,20.142,-19.287,45.471,1
0.348,-0.794,0.149,18.799,-19.531,42.419,1
0.366,-0.794,0.164,16.968,-19.958,39.734,1
0.37,-0.797,0.195,14.648,-20.935,36.682,1
0.359,-0.783,0.212,13.428,-20.996,33.508,1
0.372,-0.79,0.208,12.939,-19.775,31.555,1
0.395,-0.813,0.204,11.475,-19.348,29.846,1
0.382,-0.792,0.215,7.874,-19.775,26.672,1
0.38,-0.794,0.226,4.028,-19.775,23.804,1
0.383,-0.783,0.208,1.16,-19.531,21.667,1
0.394,-0.771,0.183,-0.061,-19.104,19.897,1
0.399,-0.774,0.172,-0.732,-18.677,18.188,1
0.413,-0.783,0.177,1.343,-17.822,16.663,1
0.418,-0.789,0.181,4.089,-16.235,14.954,1
0.425,-0.798,0.172,6.47,-14.771,13.489,1
0.443,-0.809,0.156,9.583,-13.062,12.573,1
0.448,-0.818,0.172,11.169,-11.719,11.719,1
0.453,-0.827,0.187,11.597,-10.498,10.925,1
0.445,-0.84,0.198,10.193,-9.888,9.827,1
0.437,-0.842,0.213,6.653,-10.01,8.911,1
0.44,-0.834,0.234,3.418,-10.193,7.874,1
0.441,-0.834,0.241,3.662,-9.766,6.653,1
0.436,-0.838,0.238,5.615,-8.911,6.531,1
0.461,-0.871,0.218,7.568,-8.24,7.263,1
0.462,-0.857,0.183,7.324,-8.24,5.005,1
0.471,-0.867,0.155,5.615,-8.606,4.089,1
0.477,-0.859,0.132,3.479,-9.094,4.028,1
0.482,-0.85,0.137,3.113,-9.521,4.028,1
0.481,-0.865,0.148,3.845,-9.888,3.54,1
0.479,-0.883,0.161,4.822,-9.766,2.747,1
0.474,-0.889,0.172,5.981,-9.338,2.563,1
0.473,-0.893,0.18,6.653,-8.85,2.686,1
0.474,-0.9,0.183,6.042,-8.728,2.991,1
0.482,-0.906,0.194,4.333,-8.972,3.418,1
0.488,-0.903,0.201,2.502,-9.277,3.906,1
0.487,-0.891,0.206,0.916,-9.705,4.028,1
0.48,-0.862,0.199,1.465,-9.583,4.272,1
0.475,-0.858,0.192,3.601,-9.033,4.15,1
0.473,-0.873,0.19,4.761,-8.118,3.845,1
0.477,-0.883,0.208,3.967,-7.385,3.906,1
0.472,-0.88,0.223,2.808,-6.836,3.845,1
0.474,-0.891,0.218,2.93,-6.348,3.662,1
0.472,-0.9,0.216,2.441,-5.981,3.845,1
0.471,-0.895,0.227,0.305,-5.981,4.089,1
0.468,-0.873,0.237,-2.197,-6.104,3.723,1
0.464,-0.858,0.241,-2.258,-5.371,3.174,1
0.463,-0.865,0.231,0.183,-3.967,2.441,1
0.47,-0.881,0.224,1.221,-2.625,1.953,1
0.472,-0.876,0.222,0.671,-1.587,1.648,1
0.469,-0.876,0.21,0.488,-0.793,0.977,1
0.466,-0.884,0.186,0.732,-0.549,0,1
0.467,-0.895,0.173,0.244,-0.305,-0.061,1
0.471,-0.896,0.174,-1.404,-0.549,0.122,1
0.472,-0.893,0.175,-3.357,-0.793,0.122,1
0.469,-0.873,0.167,-4.944,-1.587,0.122,1
0.476,-0.878,0.16,-4.15,-2.075,0.244,1
0.48,-0.884,0.166,-2.869,-1.892,0.549,1
0.479,-0.891,0.176,-2.869,-1.526,0.793,1
0.481,-0.883,0.185,-4.028,-1.648,1.221,1
0.477,-0.869,0.198,-5.188,-1.953,1.16,1
0.479,-0.868,0.182,-3.967,-1.465,1.16,1
0.486,-0.885,0.164,-1.709,-0.977,1.282,1
0.486,-0.889,0.16,-0.732,-0.977,1.709,1
0.488,-0.886,0.165,-1.587,-1.343,2.319,1
0.488,-0.881,0.166,-2.38,-1.831,2.197,1
0.491,-0.886,0.187,-3.113,-2.38,1.953,1
0.471,-0.882,0.184,-2.991,-1.77,2.075,1
0.475,-0.888,0.172,-1.587,-1.648,2.258,1
0.478,-0.899,0.178,-0.488,-1.831,2.136,1
0.478,-0.901,0.189,-1.038,-2.197,2.319,1
0.478,-0.887,0.199,-1.892,-2.441,2.075,1
0.48,-0.888,0.204,-1.892,-2.502,1.831,1
0.467,-0.895,0.211,-1.526,-2.136,1.892,1
0.475,-0.891,0.22,-2.258,-1.953,2.075,1
0.476,-0.879,0.224,-3.418,-1.587,1.77,1
0.474,-0.87,0.212,-3.54,-1.343,1.587,1
0.47,-0.881,0.196,-2.625,-0.549,1.587,1
0.477,-0.893,0.19,-2.502,0,1.77,1
0.484,-0.889,0.187,-3.052,-0.183,2.136,1
0.486,-0.875,0.171,-2.93,-0.366,1.953,1
0.479,-0.878,0.163,-2.563,-0.488,1.648,1
0.482,-0.888,0.158,-2.258,-0.427,2.014,1
0.487,-0.897,0.16,-2.38,-0.488,2.502,1
0.297,-1.383,0.379,43.274,-58.289,5.798,1
0.3,-1.331,0.405,41.26,-57.251,13.977,1
0.297,-1.283,0.41,41.199,-55.481,21.667,1
0.308,-1.254,0.4,41.016,-53.345,28.259,1
0.302,-1.211,0.385,41.748,-51.514,41.077,1
0.31,-1.16,0.393,42.297,-48.035,44.922,1
0.32,-1.141,0.396,41.809,-46.936,48.889,1
0.312,-1.106,0.404,43.945,-45.288,53.65,1
0.289,-1.069,0.398,48.706,-43.396,58.167,1
0.271,-1.012,0.378,57.434,-39.001,61.829,1
0.26,-0.996,0.354,66.101,-35.4,63.904,1
0.269,-1.013,0.337,70.19,-33.691,64.941,1
0.291,-1.018,0.315,68.176,-33.386,65.796,1
0.319,-1.002,0.302,63.416,-34.241,65.918,1
0.306,-0.984,0.307,59.265,-35.461,65.43,1
0.298,-0.961,0.304,56.946,-36.316,64.392,1
0.288,-0.937,0.289,56.03,-36.316,63.049,1
0.28,-0.929,0.295,56.58,-35.95,62.5,1
0.283,-0.917,0.284,57.8,-35.217,62.134,1
0.293,-0.905,0.239,58.35,-34.302,61.646,1
0.302,-0.897,0.224,58.228,-33.02,61.035,1
0.288,-0.893,0.226,58.838,-33.02,60.669,1
0.278,-0.873,0.249,58.289,-33.142,59.204,1
0.284,-0.868,0.286,56.946,-32.715,57.129,1
0.3,-0.883,0.314,54.138,-32.715,56.03,1
0.317,-0.892,0.316,50.049,-32.898,54.932,1
0.324,-0.902,0.312,42.969,-33.386,53.528,1
0.329,-0.874,0.284,35.522,-34.363,52.49,1
0.323,-0.862,0.249,30.579,-34.79,52.185,1
0.312,-0.826,0.217,28.198,-33.752,51.758,1
0.312,-0.79,0.201,27.283,-31.982,50.659,1
0.307,-0.792,0.199,25.574,-30.884,49.255,1
0.311,-0.781,0.219,23.071,-29.602,47.729,1
0.311,-0.78,0.25,22.217,-27.588,46.997,1
0.323,-0.798,0.261,23.315,-25.269,45.959,1
0.33,-0.812,0.263,23.437,-23.743,44.556,1
0.346,-0.815,0.254,22.522,-22.766,42.847,1
0.355,-0.816,0.246,20.752,-21.912,41.26,1
0.347,-0.785,0.229,18.25,-20.63,39.978,1
0.361,-0.772,0.202,17.029,-18.921,40.222,1
0.37,-0.789,0.189,16.602,-16.968,39.795,1
0.378,-0.796,0.186,15.442,-15.93,38.574,1
0.382,-0.806,0.195,14.16,-15.442,37.292,1
0.391,-0.815,0.208,11.108,-15.259,36.133,1
0.388,-0.816,0.21,7.202,-15.564,34.241,1
0.394,-0.818,0.222,2.38,-16.296,32.104,1
0.408,-0.812,0.213,-1.77,-17.395,30.518,1
0.411,-0.793,0.213,-5.188,-18.372,28.687,1
0.417,-0.783,0.207,-7.69,-18.982,27.527,1
0.427,-0.756,0.173,-8.362,-18.433,26.489,1
0.443,-0.748,0.143,-7.996,-17.09,25.085,1
0.454,-0.735,0.123,-6.104,-16.052,23.865,1
0.454,-0.732,0.135,-3.113,-15.32,22.705,1
0.448,-0.734,0.162,0.122,-14.709,20.813,1
0.458,-0.748,0.171,3.784,-13.306,18.921,1
0.45,-0.765,0.186,6.165,-11.475,18.555,1
0.505,-0.818,0.194,6.897,-10.498,19.104,1
0.491,-0.817,0.215,3.479,-11.292,16.602,1
0.491,-0.807,0.241,-0.549,-12.39,14.648,1
0.48,-0.784,0.25,-4.028,-13.428,11.902,1
0.489,-0.79,0.245,-5.31,-14.221,9.766,1
0.5,-0.813,0.237,-5.676,-14.282,8.24,1
0.522,-0.804,0.204,-6.104,-13.977,6.958,1
0.527,-0.759,0.162,-5.31,-13.916,5.798,1
0.512,-0.747,0.162,-2.319,-13.367,3.845,1
0.514,-0.78,0.175,1.77,-12.024,1.709,1
0.524,-0.829,0.204,4.028,-10.132,-0.061,1
0.522,-0.85,0.234,4.822,-8.301,-1.038,1
0.525,-0.874,0.251,4.761,-7.507,-1.343,1
0.525,-0.877,0.267,4.395,-7.08,-1.099,1
0.527,-0.888,0.267,3.784,-6.958,-0.793,1
0.532,-0.884,0.268,1.526,-7.263,-0.488,1
0.527,-0.868,0.268,-0.366,-7.69,-0.244,1
0.527,-0.858,0.252,0.122,-7.751,-0.305,1
0.523,-0.854,0.231,0.977,-7.507,-0.305,1
0.523,-0.854,0.202,1.404,-7.141,-0.122,1
0.529,-0.845,0.174,1.465,-7.324,0.366,1
0.531,-0.85,0.159,1.587,-7.446,0.61,1
0.525,-0.845,0.163,1.221,-7.751,0.732,1
0.515,-0.852,0.189,0.305,-7.996,0.549,1
0.512,-0.851,0.208,0.427,-8.118,0.732,1
0.527,-0.854,0.226,1.099,-7.812,0.793,1
0.485,-0.866,0.234,1.038,-7.812,2.563,1
0.499,-0.86,0.235,-0.244,-7.812,2.93,1
0.498,-0.855,0.231,-1.709,-7.446,2.747,1
0.49,-0.845,0.22,-2.136,-7.202,3.357,1
0.491,-0.844,0.218,-1.404,-6.592,3.967,1
0.489,-0.838,0.221,-1.16,-6.165,4.272,1
0.487,-0.843,0.225,-0.916,-5.371,4.7,1
0.489,-0.847,0.219,-0.244,-4.456,5.005,1
0.491,-0.853,0.197,0.366,-3.723,5.31,1
0.495,-0.854,0.182,-0.122,-3.418,5.737,1
0.495,-0.852,0.192,-2.197,-3.601,6.104,1
0.494,-0.84,0.209,-4.578,-3.906,6.042,1
0.491,-0.84,0.219,-4.883,-4.272,5.615,1
0.493,-0.835,0.231,-4.028,-4.028,5.371,1
0.493,-0.826,0.235,-1.892,-3.845,5.066,1
0.497,-0.825,0.222,0,-3.418,5.066,1
0.501,-0.829,0.208,0.366,-2.808,4.944,1
0.506,-0.829,0.209,-0.061,-2.502,4.944,1
0.51,-0.839,0.223,-0.244,-2.258,5.066,1
0.514,-0.852,0.238,-0.549,-2.075,4.7,1
0.51,-0.853,0.244,-1.465,-1.892,4.456,1
0.508,-0.844,0.247,-1.953,-1.648,4.517,1
0.515,-0.844,0.24,-1.709,-1.221,4.333,1
0.518,-0.849,0.229,-0.671,-0.61,4.211,1
0.523,-0.85,0.216,0.305,0.061,4.272,1
0.526,-0.857,0.201,0.671,0.122,3.967,1
0.524,-0.843,0.196,0.366,-0.244,3.784,1
0.521,-0.835,0.198,0.793,-0.732,3.662,1
0.523,-0.844,0.205,1.404,-0.61,3.296,1
0.528,-0.856,0.208,1.404,-0.61,3.174,1
0.535,-0.861,0.213,1.282,-0.671,3.174,1
0.533,-0.857,0.223,1.282,-0.61,3.479,1
0.531,-0.858,0.233,1.465,-0.61,3.601,1
0.523,-0.851,0.237,1.16,-0.671,3.418,1
0.522,-0.857,0.229,0.793,-0.488,3.662,1
0.526,-0.86,0.223,0.854,-0.061,3.967,1
0.526,-0.854,0.22,0.732,0.122,3.967,1
0.187,-1.388,0.505,74.097,-45.715,29.236,1
0.189,-1.341,0.492,65.247,-42.297,36.255,1
0.186,-1.278,0.498,59.57,-39.368,43.213,1
0.171,-1.221,0.49,57.8,-36.316,48.279,1
0.177,-1.186,0.478,58.105,-32.776,54.321,1
0.181,-1.17,0.479,58.044,-30.457,59.875,1
0.18,-1.128,0.479,56.763,-28.625,64.087,1
0.196,-1.099,0.46,54.443,-27.161,66.65,1
0.206,-1.066,0.419,53.528,-26.245,68.542,1
0.201,-1.025,0.387,55.542,-24.963,69.824,1
0.186,-0.998,0.353,58.533,-23.682,70.129,1
0.193,-0.997,0.337,60.547,-23.193,69.885,1
0.208,-0.999,0.324,61.401,-22.644,69.519,1
0.223,-1,0.319,59.875,-22.461,68.42,1
0.227,-0.998,0.331,55.481,-23.743,66.528,1
0.23,-0.986,0.344,50.598,-25.452,64.392,1
0.23,-0.993,0.353,45.044,-27.039,61.584,1
0.229,-0.99,0.36,37.842,-29.175,58.96,1
0.215,-0.955,0.354,30.212,-31.128,56.702,1
0.212,-0.913,0.351,23.193,-32.471,54.81,1
0.208,-0.898,0.325,18.494,-33.569,53.406,1
0.201,-0.856,0.302,18.616,-33.203,52.246,1
0.206,-0.839,0.266,21.423,-31.25,51.392,1
0.215,-0.844,0.247,24.292,-29.175,49.561,1
0.227,-0.842,0.248,24.963,-27.405,47.058,1
0.247,-0.856,0.272,24.17,-26.184,45.837,1
0.265,-0.876,0.299,22.217,-25.269,43.457,1
0.268,-0.842,0.302,22.583,-23.804,41.382,1
0.26,-0.834,0.293,27.283,-20.874,40.588,1
0.27,-0.833,0.288,33.508,-16.663,39.856,1
0.287,-0.843,0.268,38.879,-13.062,39.917,1
0.301,-0.862,0.264,40.161,-10.864,39.49,1
0.316,-0.881,0.274,38.757,-9.46,39.429,1
0.32,-0.875,0.276,36.438,-8.301,39.551,1
0.321,-0.874,0.273,34.18,-7.141,40.222,1
0.314,-0.872,0.248,32.349,-6.104,40.527,1
0.329,-0.869,0.219,29.236,-5.798,41.138,1
0.351,-0.877,0.187,26.917,-5.798,41.443,1
0.352,-0.875,0.168,23.56,-6.47,40.71,1
0.355,-0.869,0.172,19.714,-7.385,40.222,1
0.363,-0.864,0.184,16.235,-8.24,39.368,1
0.369,-0.86,0.185,13.489,-8.911,38.391,1
0.379,-0.862,0.185,10.986,-9.949,37.292,1
0.385,-0.863,0.184,7.874,-11.23,35.95,1
0.378,-0.843,0.187,5.066,-12.695,34.668,1
0.371,-0.829,0.181,3.174,-13.733,33.813,1
0.369,-0.82,0.18,1.953,-14.648,32.898,1
0.365,-0.816,0.178,0.61,-15.564,31.616,1
0.361,-0.817,0.18,-0.122,-16.296,30.273,1
0.362,-0.805,0.183,-0.061,-17.151,28.625,1
0.356,-0.797,0.174,0.061,-17.578,26.367,1
0.346,-0.803,0.155,0.305,-17.639,24.353,1
0.396,-0.799,0.145,1.343,-16.785,23.621,1
0.401,-0.806,0.144,1.953,-17.09,21.729,1
0.394,-0.804,0.157,1.282,-17.7,19.592,1
0.398,-0.819,0.185,0.122,-18.188,17.822,1
0.391,-0.822,0.213,-2.38,-18.799,16.052,1
0.392,-0.836,0.228,-6.042,-19.653,14.221,1
0.393,-0.825,0.228,-8.789,-20.325,13,1
0.381,-0.802,0.23,-7.69,-20.508,11.658,1
0.375,-0.791,0.229,-5.066,-19.714,9.705,1
0.374,-0.788,0.208,-1.282,-18.372,7.446,1
0.389,-0.783,0.194,2.441,-16.357,5.432,1
0.407,-0.804,0.185,7.141,-14.221,3.418,1
0.431,-0.85,0.191,12.329,-12.085,1.648,1
0.442,-0.879,0.215,16.296,-10.315,0.366,1
0.444,-0.901,0.233,18.494,-9.094,-0.183,1
0.448,-0.918,0.235,20.081,-7.935,-0.061,1
0.442,-0.932,0.25,21.545,-6.226,0.977,1
0.442,-0.939,0.241,20.508,-4.333,2.502,1
0.446,-0.924,0.24,18.982,-2.197,5.92,1
0.468,-0.947,0.238,18.005,-0.916,8.606,1
0.454,-0.945,0.246,14.709,-0.977,7.812,1
0.462,-0.956,0.242,11.169,-1.343,8.179,1
0.453,-0.935,0.235,7.69,-1.953,7.996,1
0.462,-0.932,0.223,6.042,-2.625,9.094,1
0.461,-0.924,0.205,5.432,-3.418,9.094,1
0.453,-0.901,0.19,4.456,-4.456,8.484,1
0.453,-0.907,0.171,3.54,-5.737,8.545,1
0.45,-0.879,0.13,3.235,-6.409,8.911,1
0.46,-0.871,0.083,3.418,-6.409,9.094,1
0.461,-0.867,0.068,3.784,-7.019,9.033,1
0.467,-0.885,0.075,4.517,-7.935,9.094,1
0.473,-0.9,0.095,4.028,-8.789,8.728,1
0.469,-0.894,0.128,3.479,-9.583,8.606,1
0.463,-0.896,0.156,4.333,-10.254,8.301,1
0.457,-0.898,0.166,5.127,-10.559,8.179,1
0.456,-0.908,0.18,5.127,-10.925,8.301,1
0.454,-0.905,0.194,4.395,-11.292,8.301,1
0.458,-0.903,0.192,4.028,-11.536,7.996,1
0.455,-0.886,0.189,4.272,-11.841,7.568,1
0.45,-0.881,0.176,4.395,-12.268,6.653,1
0.451,-0.876,0.167,3.784,-12.329,6.104,1
0.453,-0.874,0.174,2.625,-12.146,5.859,1
0.449,-0.866,0.194,1.953,-11.963,5.676,1
0.441,-0.858,0.211,1.831,-11.597,5.249,1
0.441,-0.873,0.216,2.319,-10.925,4.7,1
0.444,-0.876,0.222,1.709,-10.01,4.028,1
0.452,-0.871,0.224,0.427,-9.338,3.357,1
0.451,-0.858,0.22,0.244,-8.423,2.625,1
0.446,-0.861,0.224,1.343,-7.446,1.77,1
0.448,-0.868,0.23,2.625,-6.348,0.793,1
0.456,-0.882,0.229,3.845,-5.127,0.427,1
0.457,-0.889,0.223,4.456,-3.967,0,1
0.455,-0.893,0.224,4.822,-2.808,0,1
0.455,-0.905,0.22,4.395,-2.136,0.122,1
0.463,-0.911,0.21,2.38,-1.648,0.305,1
0.465,-0.905,0.207,-0.427,-1.587,0.854,1
0.462,-0.896,0.198,-2.991,-1.709,1.587,1
0.458,-0.88,0.192,-3.662,-1.587,2.563,1
0.458,-0.88,0.184,-2.075,-0.916,2.991,1
0.467,-0.893,0.165,-0.549,-0.122,3.418,1
0.473,-0.901,0.156,-0.427,0.122,3.418,1
0.466,-0.901,0.163,-1.16,-0.427,3.784,1
0.46,-0.901,0.173,-2.136,-0.977,4.028,1
0.459,-0.902,0.171,-3.174,-1.282,4.272,1
0.458,-0.895,0.17,-4.028,-1.587,4.517,1
0.457,-0.891,0.175,-3.967,-1.953,4.517,1
0.46,-0.886,0.174,-3.296,-2.197,4.272,1
0.385,-1.333,0.341,61.768,-33.508,20.63,1
0.396,-1.292,0.377,57.861,-34.485,26.733,1
0.39,-1.236,0.387,55.969,-34.363,31.189,1
0.403,-1.203,0.38,53.589,-33.752,34.729,1
0.4,-1.128,0.331,52.185,-32.654,43.396,1
0.406,-1.103,0.297,51.453,-32.166,47.302,1
0.394,-1.074,0.262,50.354,-32.227,50.598,1
0.4,-1.045,0.253,48.096,-33.203,52.917,1
0.397,-1.039,0.246,45.837,-34.729,55.298,1
0.398,-1.035,0.244,44.739,-34.912,54.932,1
0.399,-1.02,0.234,45.105,-35.278,53.955,1
0.387,-1.002,0.216,48.096,-34.912,53.65,1
0.365,-0.996,0.212,51.392,-34.668,53.162,1
0.352,-0.969,0.2,54.749,-34.302,52.612,1
0.35,-0.957,0.22,55.969,-34.485,51.514,1
0.35,-0.929,0.214,57.19,-34.485,50.049,1
0.355,-0.927,0.218,57.312,-35.095,49.255,1
0.358,-0.933,0.237,55.054,-36.255,48.279,1
0.357,-0.942,0.243,49.683,-38.452,47.18,1
0.356,-0.933,0.243,42.114,-40.833,46.082,1
0.344,-0.894,0.26,34.851,-43.518,45.105,1
0.323,-0.844,0.244,31.86,-44.006,44.861,1
0.317,-0.817,0.207,33.264,-42.419,44.617,1
0.3,-0.82,0.177,37.354,-40.405,44.861,1
0.314,-0.845,0.174,36.987,-39.001,44.8,1
0.337,-0.862,0.196,33.691,-38.879,43.701,1
0.344,-0.843,0.209,30.457,-38.818,42.236,1
0.35,-0.834,0.229,28.748,-38.33,41.321,1
0.354,-0.826,0.242,30.396,-36.682,40.833,1
0.349,-0.822,0.241,33.508,-34.79,40.71,1
0.356,-0.808,0.232,36.316,-32.227,40.283,1
0.359,-0.808,0.219,38.574,-29.724,40.405,1
0.374,-0.815,0.189,39.917,-27.222,40.344,1
0.377,-0.827,0.17,39.856,-25.94,39.551,1
0.377,-0.84,0.182,37.903,-25.513,39.001,1
0.384,-0.856,0.197,35.645,-25.269,38.147,1
0.398,-0.872,0.212,32.593,-25.024,36.682,1
0.39,-0.866,0.228,28.87,-24.658,35.461,1
0.406,-0.855,0.211,26.917,-24.048,34.546,1
0.416,-0.854,0.194,25.33,-23.499,35.278,1
0.422,-0.861,0.184,22.522,-23.926,35.339,1
0.424,-0.853,0.178,18.982,-24.78,34.668,1
0.426,-0.843,0.18,15.137,-25.391,33.447,1
0.433,-0.827,0.161,12.512,-25.391,33.081,1
0.435,-0.824,0.143,11.475,-25.635,33.142,1
0.438,-0.816,0.134,9.46,-25.818,32.898,1
0.444,-0.821,0.137,7.141,-25.574,32.104,1
0.452,-0.835,0.148,5.432,-25.513,31.433,1
0.448,-0.83,0.166,3.479,-25.208,30.579,1
0.447,-0.826,0.176,1.953,-25.085,29.846,1
0.45,-0.826,0.174,1.343,-24.475,29.175,1
0.451,-0.825,0.167,0.61,-23.865,28.381,1
0.456,-0.812,0.154,-1.465,-23.682,27.466,1
0.458,-0.778,0.109,-3.418,-23.499,26.672,1
0.462,-0.754,0.088,-3.174,-22.949,26.001,1
0.459,-0.76,0.093,-0.793,-22.217,25.146,1
0.473,-0.772,0.111,2.38,-20.508,24.231,1
0.48,-0.777,0.135,4.7,-19.104,22.949,1
0.488,-0.793,0.157,6.165,-18.25,20.752,1
0.491,-0.801,0.184,6.104,-18.127,18.616,1
0.492,-0.806,0.202,6.165,-18.066,17.029,1
0.493,-0.809,0.214,6.226,-17.7,15.503,1
0.495,-0.802,0.206,6.226,-17.395,14.16,1
0.501,-0.813,0.191,5.31,-16.907,12.878,1
0.504,-0.824,0.181,2.502,-16.785,11.78,1
0.505,-0.821,0.192,-0.977,-16.724,11.047,1
0.502,-0.802,0.205,-2.93,-16.418,10.132,1
0.494,-0.777,0.217,-3.418,-15.381,8.85,1
0.484,-0.767,0.235,-2.502,-13.794,7.019,1
0.484,-0.777,0.228,-0.793,-12.146,5.249,1
0.498,-0.799,0.206,0,-10.803,4.272,1
0.521,-0.817,0.184,-0.977,-10.01,3.723,1
0.544,-0.806,0.18,-2.808,-10.559,4.15,1
0.508,-0.802,0.174,-3.113,-11.353,4.15,1
0.534,-0.799,0.174,-2.075,-10.681,2.563,1
0.525,-0.809,0.179,-0.854,-10.132,1.587,1
0.536,-0.818,0.169,-0.549,-9.033,1.587,1
0.541,-0.818,0.172,-0.122,-8.057,1.953,1
0.546,-0.807,0.174,1.587,-7.08,2.014,1
0.545,-0.807,0.184,3.54,-6.592,1.343,1
0.549,-0.818,0.196,5.31,-6.226,0.916,1
0.557,-0.831,0.191,6.47,-5.859,0.244,1
0.565,-0.842,0.188,6.592,-5.493,0,1
0.57,-0.849,0.181,6.897,-5.127,0.366,1
0.574,-0.853,0.167,7.08,-5.432,0.366,1
0.568,-0.86,0.166,7.141,-5.798,0.122,1
0.569,-0.875,0.172,7.141,-6.042,0.61,1
0.565,-0.876,0.174,6.897,-6.104,0.854,1
0.563,-0.865,0.166,6.958,-6.104,1.038,1
0.546,-0.865,0.175,6.531,-6.775,1.587,1
0.54,-0.879,0.187,5.31,-7.385,2.014,1
0.537,-0.889,0.196,2.136,-8.179,2.38,1
0.539,-0.889,0.204,-1.77,-9.033,3.052,1
0.533,-0.872,0.218,-4.272,-9.644,4.028,1
0.546,-0.861,0.213,-3.784,-9.521,4.822,1
0.515,-0.854,0.197,-1.953,-9.216,5.798,1
0.517,-0.847,0.194,-0.488,-8.423,5.798,1
0.534,-0.845,0.181,0.793,-6.897,5.371,1
0.538,-0.844,0.159,2.075,-5.737,5.493,1
0.537,-0.854,0.162,2.563,-5.432,5.737,1
0.538,-0.86,0.176,1.282,-5.554,6.348,1
0.538,-0.853,0.194,-1.465,-5.676,6.531,1
0.531,-0.841,0.218,-4.333,-6.104,6.409,1
0.527,-0.827,0.24,-5.554,-6.287,6.287,1
0.529,-0.82,0.253,-5.554,-5.981,6.226,1
0.495,-0.823,0.256,-5.005,-5.249,6.409,1
0.526,-0.817,0.245,-4.028,-3.357,5.432,1
0.532,-0.82,0.226,-3.479,-1.77,4.761,1
0.533,-0.819,0.209,-3.052,-0.427,4.089,1
0.537,-0.827,0.193,-2.747,0.244,3.357,1
0.537,-0.827,0.191,-2.747,0.549,2.808,1
0.541,-0.828,0.186,-2.93,0.61,1.892,1
0.546,-0.834,0.181,-3.113,0.61,1.282,1
0.548,-0.839,0.176,-4.211,0.671,0.916,1
0.546,-0.828,0.186,-5.92,0.122,0.488,1
0.541,-0.818,0.202,-5.493,-0.122,0.366,1
0.535,-0.809,0.191,-2.686,0.122,0.061,1
0.546,-0.837,0.157,0.061,0.488,-0.305,1
0.559,-0.84,0.146,0.793,0.488,0,1
0.228,-1.537,0.358,78.308,-33.325,-0.854,1
0.205,-1.465,0.415,55.42,-42.603,5.31,1
0.155,-1.403,0.465,42.236,-49.866,15.198,1
0.151,-1.372,0.513,36.072,-51.331,25.391,1
0.169,-1.356,0.516,28.32,-50.537,45.105,1
0.17,-1.233,0.465,28.137,-46.875,53.223,1
0.175,-1.183,0.428,32.532,-41.931,59.753,1
0.198,-1.154,0.401,39.185,-36.56,65.613,1
0.216,-1.156,0.398,45.166,-31.921,70.923,1
0.224,-1.14,0.41,48.401,-29.419,74.951,1
0.226,-1.111,0.422,49.316,-28.503,77.637,1
0.228,-1.097,0.422,47.791,-28.259,78.247,1
0.235,-1.063,0.436,44.25,-28.503,78.491,1
0.224,-1.028,0.42,42.786,-29.297,78.674,1
0.218,-1.016,0.399,43.335,-28.992,77.881,1
0.22,-1,0.361,44.861,-29.175,78.003,1
0.225,-0.983,0.338,45.227,-30.151,78.003,1
0.215,-0.974,0.327,43.64,-31.677,77.026,1
0.215,-0.945,0.34,41.443,-32.715,75.5,1
0.217,-0.911,0.332,43.823,-32.166,73.914,1
0.22,-0.914,0.301,50.293,-30.151,72.693,1
0.226,-0.929,0.28,57.495,-28.442,72.021,1
0.249,-0.947,0.294,59.265,-27.71,70.984,1
0.254,-0.947,0.319,57.007,-28.198,69.519,1
0.254,-0.925,0.332,54.443,-28.687,67.444,1
0.261,-0.917,0.336,52.917,-28.931,65.918,1
0.26,-0.915,0.318,52.185,-29.419,64.941,1
0.258,-0.901,0.282,52.185,-29.358,64.209,1
0.264,-0.91,0.281,51.392,-28.625,64.026,1
0.276,-0.905,0.268,48.218,-28.931,64.148,1
0.282,-0.892,0.259,43.762,-29.48,64.392,1
0.278,-0.879,0.27,38.33,-30.457,63.538,1
0.271,-0.854,0.279,33.569,-31.311,62.012,1
0.271,-0.838,0.282,30.64,-31.189,60.608,1
0.284,-0.837,0.283,29.846,-30.396,59.57,1
0.295,-0.838,0.271,28.992,-30.09,57.373,1
0.289,-0.823,0.262,26.978,-29.968,54.626,1
0.294,-0.812,0.257,25.024,-29.541,52.307,1
0.304,-0.804,0.252,24.475,-28.564,50.537,1
0.311,-0.808,0.256,25.635,-27.283,48.584,1
0.317,-0.812,0.26,26.001,-25.818,46.204,1
0.32,-0.806,0.263,25.513,-24.597,44.556,1
0.325,-0.8,0.24,24.841,-23.437,42.969,1
0.339,-0.818,0.239,23.376,-22.888,41.077,1
0.333,-0.833,0.243,20.02,-22.949,38.513,1
0.34,-0.818,0.243,15.442,-22.766,36.743,1
0.345,-0.819,0.246,10.01,-23.376,34.79,1
0.332,-0.797,0.244,5.066,-24.231,32.166,1
0.347,-0.781,0.229,2.258,-23.987,30.029,1
0.354,-0.782,0.214,1.343,-23.01,27.832,1
0.365,-0.774,0.218,1.526,-21.851,26.123,1
0.37,-0.761,0.223,2.869,-20.508,24.048,1
0.371,-0.757,0.23,4.639,-19.165,21.729,1
0.351,-0.754,0.236,7.629,-16.907,19.775,1
0.39,-0.768,0.236,11.597,-13.611,19.775,1
0.397,-0.799,0.226,14.771,-11.414,18.188,1
0.404,-0.811,0.222,15.503,-10.254,17.029,1
0.408,-0.83,0.228,14.954,-9.583,15.869,1
0.413,-0.823,0.231,13,-9.277,15.381,1
0.415,-0.832,0.217,11.658,-8.911,15.015,1
0.427,-0.839,0.196,10.376,-8.789,14.099,1
0.436,-0.85,0.177,7.69,-9.155,12.695,1
0.438,-0.843,0.163,4.761,-10.193,11.658,1
0.447,-0.849,0.155,2.258,-11.108,10.559,1
0.447,-0.838,0.154,0.549,-11.78,9.521,1
0.459,-0.841,0.146,1.038,-11.78,8.972,1
0.463,-0.837,0.145,2.686,-11.78,7.935,1
0.46,-0.836,0.165,5.371,-11.658,7.019,1
0.455,-0.839,0.184,8.728,-11.536,5.798,1
0.452,-0.849,0.198,10.498,-11.353,4.211,1
0.456,-0.865,0.211,10.376,-11.78,3.357,1
0.469,-0.887,0.223,8.484,-12.512,2.869,1
0.476,-0.867,0.22,7.202,-13,4.7,1
0.491,-0.893,0.194,7.446,-13.428,7.08,1
0.491,-0.873,0.181,5.676,-14.099,4.7,1
0.489,-0.873,0.181,5.188,-14.709,3.296,1
0.482,-0.856,0.192,6.592,-14.587,2.014,1
0.478,-0.868,0.197,9.827,-13.428,1.465,1
0.476,-0.884,0.193,11.78,-12.512,1.282,1
0.48,-0.892,0.193,10.864,-12.146,1.343,1
0.485,-0.902,0.197,8.728,-12.146,1.77,1
0.49,-0.909,0.205,6.287,-12.085,2.075,1
0.487,-0.907,0.221,4.272,-12.024,2.38,1
0.481,-0.901,0.242,3.479,-11.902,2.686,1
0.474,-0.894,0.258,3.479,-11.292,3.174,1
0.488,-0.869,0.254,4.272,-10.01,4.333,1
0.456,-0.917,0.237,4.761,-8.972,8.179,1
0.474,-0.898,0.239,2.808,-8.362,6.897,1
0.473,-0.888,0.241,-0.183,-8.118,6.104,1
0.467,-0.884,0.243,-2.136,-8.179,5.92,1
0.473,-0.872,0.246,-3.967,-7.69,6.104,1
0.474,-0.866,0.253,-5.371,-7.202,5.92,1
0.475,-0.861,0.26,-5.92,-6.653,5.676,1
0.479,-0.864,0.256,-5.493,-5.493,5.066,1
0.478,-0.865,0.254,-4.761,-4.517,4.15,1
0.471,-0.867,0.255,-4.883,-3.845,3.296,1
0.469,-0.871,0.248,-5.981,-3.601,2.869,1
0.464,-0.856,0.232,-7.08,-3.296,2.747,1
0.46,-0.841,0.215,-6.592,-2.869,2.93,1
0.462,-0.841,0.21,-5.981,-2.258,3.357,1
0.469,-0.841,0.215,-5.798,-1.526,3.601,1
0.473,-0.841,0.208,-5.066,-0.916,3.174,1
0.478,-0.848,0.203,-4.883,-0.671,2.625,1
0.482,-0.854,0.205,-4.7,-0.671,2.747,1
0.484,-0.86,0.207,-4.272,-0.488,2.625,1
0.478,-0.86,0.218,-4.395,-0.732,2.625,1
0.478,-0.865,0.223,-4.639,-0.977,2.869,1
0.48,-0.88,0.222,-3.845,-0.916,2.869,1
0.486,-0.888,0.219,-4.456,-0.732,2.686,1
0.489,-0.88,0.223,-5.249,-1.16,2.808,1
0.486,-0.868,0.225,-4.883,-1.343,2.869,1
0.491,-0.87,0.221,-3.113,-0.977,2.747,1
0.495,-0.871,0.215,-2.197,-0.793,2.808,1
0.496,-0.864,0.21,-2.93,-0.732,2.808,1
0.499,-0.86,0.212,-4.761,-1.038,3.113,1
0.494,-0.858,0.218,-5.676,-1.343,3.113,1
0.493,-0.865,0.229,-5.493,-1.282,3.174,1
0.493,-0.868,0.234,-4.944,-1.343,3.113,1
0.487,-0.862,0.239,-4.15,-1.16,2.747,1
0.217,-1.364,0.419,73.792,-30.762,34.912,1
0.241,-1.357,0.425,72.632,-28.259,42.297,1
0.26,-1.348,0.422,68.848,-26.672,48.95,1
0.262,-1.301,0.428,62.805,-27.039,55.176,1
0.258,-1.237,0.417,56.396,-28.137,60.059,1
0.259,-1.203,0.381,51.758,-28.87,63.965,1
0.253,-1.161,0.351,50.11,-28.687,67.688,1
0.241,-1.135,0.337,49.194,-28.198,70.862,1
0.252,-1.128,0.319,46.082,-27.954,72.998,1
0.258,-1.088,0.307,43.274,-28.503,74.646,1
0.24,-1.044,0.313,43.64,-28.992,75.5,1
0.228,-1.01,0.278,48.462,-28.503,75.317,1
0.225,-0.978,0.264,57.068,-26.184,76.05,1
0.232,-0.965,0.245,66.711,-23.56,75.989,1
0.254,-0.977,0.245,72.937,-21.729,74.951,1
0.264,-0.98,0.263,74.097,-21.667,73.303,1
0.281,-0.972,0.28,70.007,-24.17,70.923,1
0.28,-0.957,0.304,61.89,-28.625,68.237,1
0.269,-0.931,0.314,52.673,-32.959,65.308,1
0.261,-0.895,0.303,46.692,-36.011,62.927,1
0.257,-0.883,0.283,42.664,-37.598,61.462,1
0.269,-0.903,0.248,37.72,-39.917,60.242,1
0.271,-0.875,0.215,33.081,-41.382,59.937,1
0.27,-0.837,0.19,29.846,-42.053,58.96,1
0.271,-0.839,0.181,26.001,-42.847,56.702,1
0.277,-0.847,0.199,20.142,-43.762,54.443,1
0.281,-0.841,0.223,12.634,-44.495,52.612,1
0.278,-0.822,0.27,6.409,-44.861,50.842,1
0.275,-0.798,0.312,3.479,-44.128,49.316,1
0.276,-0.784,0.328,4.944,-42.725,47.668,1
0.279,-0.772,0.306,7.996,-40.039,46.692,1
0.278,-0.752,0.269,11.658,-35.889,46.692,1
0.312,-0.767,0.253,14.771,-31.921,47.729,1
0.316,-0.78,0.245,17.334,-29.785,46.753,1
0.33,-0.794,0.246,18.982,-27.283,45.288,1
0.324,-0.81,0.229,20.935,-24.902,44.861,1
0.331,-0.807,0.221,24.048,-22.217,45.532,1
0.333,-0.809,0.222,28.137,-19.714,44.922,1
0.341,-0.817,0.228,30.457,-17.273,44.128,1
0.346,-0.811,0.219,31.433,-15.32,43.701,1
0.354,-0.809,0.212,30.334,-13.916,42.908,1
0.357,-0.812,0.217,27.649,-13.367,41.748,1
0.388,-0.827,0.21,23.56,-13.794,41.26,1
0.413,-0.855,0.194,18.86,-15.503,39.978,1
0.414,-0.85,0.184,13.428,-17.883,38.574,1
0.402,-0.809,0.154,10.498,-19.897,37.354,1
0.396,-0.786,0.128,10.62,-21.179,35.95,1
0.382,-0.772,0.121,10.559,-21.179,34.363,1
0.427,-0.798,0.121,10.742,-20.203,32.898,1
0.433,-0.817,0.123,9.094,-20.325,30.396,1
0.449,-0.834,0.15,7.202,-20.63,28.687,1
0.457,-0.839,0.177,8.057,-20.691,27.527,1
0.455,-0.843,0.2,10.071,-20.569,26.367,1
0.45,-0.852,0.213,10.071,-20.081,24.902,1
0.447,-0.836,0.196,9.766,-19.775,23.926,1
0.432,-0.813,0.187,10.559,-19.165,23.193,1
0.466,-0.832,0.172,12.512,-17.822,22.827,1
0.459,-0.842,0.154,13.062,-17.517,21.484,1
0.48,-0.844,0.141,13.123,-16.968,20.935,1
0.493,-0.86,0.138,11.78,-16.907,19.47,1
0.5,-0.869,0.142,9.827,-17.273,18.372,1
0.501,-0.865,0.166,7.507,-17.639,17.212,1
0.495,-0.862,0.182,4.883,-17.761,16.235,1
0.493,-0.862,0.194,3.54,-17.578,15.198,1
0.495,-0.857,0.202,2.197,-17.883,13.794,1
0.494,-0.857,0.208,0.671,-18.188,12.451,1
0.489,-0.836,0.216,0.061,-18.311,10.925,1
0.484,-0.837,0.218,-0.122,-18.311,8.972,1
0.491,-0.837,0.183,-0.488,-18.188,7.202,1
0.508,-0.823,0.159,-1.282,-18.311,6.104,1
0.511,-0.813,0.16,-2.563,-18.372,4.944,1
0.509,-0.809,0.172,-2.686,-18.188,3.113,1
0.505,-0.815,0.188,-0.977,-17.395,1.099,1
0.501,-0.838,0.213,1.16,-16.357,-0.793,1
0.505,-0.863,0.224,2.991,-14.832,-2.197,1
0.505,-0.877,0.231,4.089,-13.428,-2.686,1
0.501,-0.889,0.24,3.723,-12.695,-2.441,1
0.492,-0.885,0.255,2.38,-12.146,-1.587,1
0.492,-0.877,0.258,0.732,-11.536,-0.977,1
0.494,-0.86,0.261,-1.282,-10.681,-0.549,1
0.496,-0.849,0.248,-1.831,-9.277,-0.061,1
0.501,-0.855,0.232,-1.038,-7.874,0.183,1
0.505,-0.857,0.218,-0.793,-6.531,0.366,1
0.506,-0.859,0.21,-1.77,-5.798,0.916,1
0.503,-0.862,0.212,-2.686,-5.371,1.465,1
0.504,-0.859,0.213,-2.808,-4.944,1.77,1
0.504,-0.859,0.218,-2.991,-4.7,2.197,1
0.506,-0.854,0.221,-3.479,-4.028,2.869,1
0.509,-0.848,0.224,-3.235,-3.54,3.235,1
0.515,-0.843,0.222,-2.747,-3.113,3.54,1
0.519,-0.837,0.218,-1.892,-2.869,3.906,1
0.513,-0.838,0.213,-1.831,-2.441,3.723,1
0.512,-0.837,0.209,-2.625,-2.258,3.418,1
0.508,-0.84,0.208,-3.052,-2.563,3.296,1
0.509,-0.845,0.201,-2.808,-2.563,2.991,1
0.511,-0.845,0.198,-2.441,-2.563,2.991,1
0.512,-0.847,0.201,-1.953,-2.869,2.686,1
0.511,-0.844,0.193,-1.16,-2.93,2.441,1
0.513,-0.846,0.187,-0.305,-2.502,2.136,1
0.515,-0.851,0.18,0.366,-2.441,2.075,1
0.517,-0.857,0.182,-0.061,-2.38,2.258,1
0.518,-0.864,0.188,-0.793,-2.869,2.319,1
0.512,-0.862,0.19,-1.587,-3.479,2.319,1
0.505,-0.85,0.202,-2.075,-4.211,2.38,1
0.501,-0.842,0.21,-0.61,-4.028,2.258,1
0.506,-0.844,0.195,0.427,-3.54,1.709,1
0.506,-0.837,0.192,1.038,-3.601,1.343,1
0.499,-0.832,0.195,1.953,-3.479,1.038,1
0.502,-0.845,0.194,3.235,-3.235,0.671,1
0.51,-0.854,0.196,3.479,-2.808,0.671,1
0.515,-0.86,0.201,2.869,-2.563,0.793,1
0.514,-0.863,0.202,2.014,-2.625,1.099,1
0.511,-0.865,0.213,1.709,-3.052,1.343,1
0.509,-0.873,0.225,1.465,-2.93,1.587,1
0.502,-0.874,0.23,-0.122,-2.747,1.709,1
0.501,-0.868,0.225,-1.404,-2.502,2.197,1
0.502,-0.863,0.217,-1.282,-2.441,2.625,1
0.505,-0.868,0.215,-1.099,-2.014,2.991,1
0.51,-0.865,0.21,-0.977,-1.831,2.93,1
0.11,-1.505,0.561,75.439,-41.687,3.662,1
0.106,-1.469,0.572,69.031,-39.856,14.893,1
0.099,-1.44,0.585,61.707,-39.307,24.841,1
0.086,-1.4,0.572,46.143,-36.072,42.664,1
0.106,-1.357,0.544,39.307,-33.569,50.11,1
0.111,-1.313,0.539,33.752,-31.189,57.739,1
0.113,-1.273,0.521,30.701,-29.114,65.125,1
0.112,-1.219,0.494,31.311,-26.611,71.228,1
0.105,-1.192,0.473,32.532,-25.085,75.745,1
0.113,-1.159,0.455,31.433,-24.17,78.918,1
0.119,-1.106,0.433,30.579,-23.071,81.97,1
0.11,-1.071,0.419,33.142,-21.484,84.106,1
0.097,-1.042,0.414,37.476,-19.714,85.205,1
0.1,-1.005,0.421,40.466,-18.311,85.327,1
0.096,-0.969,0.414,44.006,-16.602,84.961,1
0.095,-0.962,0.405,46.143,-16.296,83.862,1
0.111,-0.947,0.372,45.471,-17.334,82.703,1
0.13,-0.94,0.335,42.48,-19.47,80.994,1
0.13,-0.93,0.3,39.917,-22.095,80.322,1
0.131,-0.928,0.307,37.415,-24.475,80.017,1
0.145,-0.907,0.309,34.851,-26.184,79.163,1
0.144,-0.866,0.318,33.813,-26.978,77.576,1
0.132,-0.841,0.323,35.645,-26.306,75.867,1
0.142,-0.844,0.315,39.673,-24.17,74.646,1
0.157,-0.865,0.307,41.443,-22.034,73.792,1
0.169,-0.877,0.311,38.025,-21.79,73.242,1
0.189,-0.848,0.333,31.494,-22.644,71.045,1
0.187,-0.808,0.329,27.832,-24.17,69.275,1
0.165,-0.794,0.327,28.564,-25.024,68.481,1
0.164,-0.776,0.322,28.992,-24.597,66.772,1
0.173,-0.771,0.308,28.137,-23.743,65.674,1
0.195,-0.774,0.278,27.039,-22.644,65.796,1
0.211,-0.777,0.251,24.536,-22.156,64.819,1
0.231,-0.76,0.249,22.278,-22.583,63.599,1
0.222,-0.751,0.265,20.264,-23.315,61.34,1
0.224,-0.737,0.261,19.043,-22.949,59.082,1
0.252,-0.748,0.267,19.592,-21.179,57.678,1
0.255,-0.761,0.274,18.188,-20.691,55.847,1
0.259,-0.752,0.286,16.479,-20.203,54.749,1
0.261,-0.752,0.3,17.273,-19.531,53.162,1
0.266,-0.766,0.299,16.968,-18.982,51.27,1
0.276,-0.764,0.29,15.198,-18.738,50.232,1
0.291,-0.775,0.286,11.353,-18.982,48.218,1
0.306,-0.773,0.264,6.531,-19.775,45.959,1
0.325,-0.778,0.247,2.136,-21.362,43.274,1
0.32,-0.766,0.266,-1.953,-23.132,39.673,1
0.326,-0.735,0.285,-3.601,-23.743,36.072,1
0.338,-0.737,0.291,-1.892,-23.071,32.349,1
0.348,-0.745,0.291,2.197,-21.729,28.87,1
0.361,-0.759,0.298,5.127,-20.142,26.306,1
0.376,-0.771,0.298,7.69,-18.677,23.682,1
0.384,-0.783,0.306,9.155,-17.09,21.362,1
0.399,-0.788,0.299,10.925,-15.808,19.226,1
0.409,-0.802,0.293,12.451,-14.465,17.273,1
0.413,-0.807,0.293,12.817,-13.367,15.625,1
0.398,-0.811,0.289,13.489,-12.024,14.343,1
0.42,-0.833,0.299,14.832,-9.644,15.625,1
0.411,-0.837,0.319,15.564,-9.094,13.367,1
0.402,-0.842,0.333,17.029,-8.179,11.047,1
0.409,-0.867,0.333,18.799,-6.775,9.949,1
0.411,-0.867,0.327,19.226,-5.615,9.094,1
0.428,-0.876,0.297,19.165,-4.578,8.484,1
0.433,-0.875,0.271,18.188,-5.066,7.08,1
0.431,-0.887,0.259,15.076,-6.531,5.798,1
0.437,-0.895,0.252,9.888,-7.935,4.761,1
0.425,-0.864,0.25,4.578,-9.705,3.479,1
0.422,-0.866,0.254,2.625,-10.742,2.502,1
0.424,-0.878,0.254,2.38,-10.986,1.587,1
0.424,-0.88,0.255,2.441,-11.169,1.038,1
0.42,-0.875,0.245,3.601,-10.925,1.587,1
0.421,-0.886,0.232,5.859,-10.376,1.587,1
0.429,-0.892,0.236,6.165,-10.437,0.671,1
0.437,-0.896,0.241,4.578,-10.498,0.427,1
0.438,-0.881,0.253,3.418,-10.681,0.366,1
0.428,-0.881,0.266,4.333,-10.559,1.282,1
0.434,-0.889,0.28,6.592,-9.705,0.488,1
0.437,-0.903,0.279,8.911,-8.301,0.427,1
0.442,-0.905,0.282,9.888,-7.141,1.099,1
0.439,-0.905,0.288,9.399,-6.409,1.77,1
0.436,-0.917,0.291,8.423,-6.104,2.563,1
0.439,-0.93,0.287,5.981,-5.92,3.174,1
0.436,-0.922,0.293,2.502,-6.47,3.784,1
0.429,-0.906,0.307,-0.488,-7.202,4.761,1
0.431,-0.898,0.306,-1.77,-6.897,5.371,1
0.432,-0.891,0.291,-1.892,-6.104,6.104,1
0.432,-0.888,0.288,-2.625,-5.249,7.08,1
0.432,-0.877,0.292,-3.906,-4.761,6.836,1
0.431,-0.873,0.292,-5.127,-3.906,6.714,1
0.428,-0.864,0.287,-5.981,-3.479,6.104,1
0.424,-0.854,0.282,-6.226,-2.991,5.493,1
0.427,-0.861,0.266,-5.066,-2.441,4.822,1
0.427,-0.86,0.246,-3.357,-2.075,4.211,1
0.42,-0.854,0.246,-2.991,-1.831,3.784,1
0.416,-0.847,0.258,-3.052,-1.77,3.601,1
0.419,-0.852,0.249,-2.625,-1.648,3.113,1
0.426,-0.861,0.244,-2.808,-1.526,2.686,1
0.432,-0.868,0.242,-3.601,-1.831,2.38,1
0.424,-0.86,0.258,-4.883,-2.38,2.075,1
0.418,-0.849,0.274,-6.287,-2.747,1.953,1
0.416,-0.838,0.272,-5.798,-2.502,1.892,1
0.423,-0.84,0.251,-1.892,-1.221,1.953,1
0.433,-0.865,0.233,2.014,-0.183,1.77,1
0.445,-0.89,0.237,2.319,-0.122,1.526,1
0.452,-0.891,0.247,0.488,-0.732,1.038,1
0.438,-0.883,0.282,0.061,-1.099,0.488,1
0.43,-0.898,0.299,0.366,-1.038,0.244,1
0.436,-0.897,0.3,-0.122,-0.977,0.183,1
0.438,-0.894,0.298,-1.343,-1.099,0.183,1
0.436,-0.88,0.294,-2.197,-1.099,0.366,1
0.435,-0.879,0.285,-2.625,-0.488,0.488,1
0.445,-0.897,0.268,-2.991,-0.183,0.671,1
0.455,-0.903,0.266,-3.601,-0.305,0.793,1
0.452,-0.884,0.264,-3.235,-0.61,0.549,1
0.45,-0.88,0.248,-0.305,-0.61,0.244,1
0.448,-0.898,0.238,0.916,-0.549,-0.061,1
0.454,-0.91,0.226,-0.305,-0.671,0.427,1
0.447,-0.902,0.226,-0.854,-0.671,1.16,1
0.449,-0.906,0.224,0.305,-0.916,2.014,1
0.444,-0.911,0.238,1.282,-1.587,2.869,1
0.13,-1.461,0.396,70.435,-61.462,42.908,1
0.135,-1.407,0.422,73.364,-59.326,51.147,1
0.146,-1.393,0.387,72.937,-58.472,58.655,1
0.14,-1.319,0.346,69.092,-58.655,67.627,1
0.151,-1.274,0.308,63.049,-59.387,75.989,1
0.142,-1.257,0.301,54.565,-61.584,81.909,1
0.127,-1.19,0.3,46.692,-62.317,87.463,1
0.151,-1.133,0.306,40.771,-62.256,90.393,1
0.147,-1.096,0.332,37.17,-62.561,91.98,1
0.117,-1.044,0.362,35.461,-61.646,94.055,1
0.111,-1.003,0.387,36.194,-58.96,94.91,1
0.097,-0.98,0.404,37.659,-55.664,94.971,1
0.099,-0.942,0.409,38.452,-52.49,94.666,1
0.106,-0.903,0.379,40.833,-49.072,94.116,1
0.114,-0.889,0.34,43.762,-46.448,93.018,1
0.124,-0.883,0.303,44.8,-45.227,91.431,1
0.128,-0.871,0.291,45.105,-43.945,89.783,1
0.131,-0.857,0.285,45.288,-42.786,87.891,1
0.157,-0.857,0.294,44.739,-41.748,85.266,1
0.155,-0.86,0.31,44.434,-41.321,82.153,1
0.14,-0.872,0.331,43.03,-40.466,78.918,1
0.177,-0.876,0.323,40.771,-38.879,76.416,1
0.201,-0.881,0.308,36.316,-38.696,73.425,1
0.189,-0.878,0.299,29.236,-39.734,70.557,1
0.193,-0.854,0.281,22.705,-40.649,68.054,1
0.2,-0.842,0.266,17.151,-41.016,65.43,1
0.201,-0.811,0.244,12.573,-40.833,62.988,1
0.216,-0.792,0.231,8.545,-39.978,60.608,1
0.221,-0.791,0.227,5.31,-39.246,57.8,1
0.231,-0.778,0.245,3.418,-37.598,55.115,1
0.241,-0.783,0.259,2.136,-35.706,52.246,1
0.244,-0.774,0.264,2.136,-33.813,49.683,1
0.254,-0.771,0.258,3.723,-31.677,46.875,1
0.26,-0.778,0.247,6.531,-29.236,44.495,1
0.265,-0.785,0.234,8.118,-26.917,42.114,1
0.272,-0.78,0.222,7.69,-25.024,39.978,1
0.276,-0.775,0.184,8.484,-23.315,37.781,1
0.291,-0.786,0.158,9.155,-21.545,35.828,1
0.301,-0.8,0.156,7.263,-20.447,34.119,1
0.307,-0.809,0.164,3.662,-20.325,32.471,1
0.324,-0.817,0.174,-0.183,-20.447,30.212,1
0.323,-0.799,0.177,-2.319,-20.691,28.32,1
0.331,-0.802,0.166,-2.441,-20.508,26.428,1
0.336,-0.804,0.171,-1.099,-19.592,24.841,1
0.35,-0.803,0.175,1.465,-17.944,23.376,1
0.358,-0.813,0.17,4.028,-16.235,21.301,1
0.371,-0.821,0.152,7.812,-14.832,19.348,1
0.384,-0.838,0.152,12.024,-13.916,18.005,1
0.393,-0.856,0.143,14.16,-13,16.968,1
0.408,-0.858,0.139,15.32,-12.512,15.747,1
0.407,-0.86,0.145,15.015,-12.451,14.648,1
0.41,-0.862,0.159,14.099,-12.207,14.16,1
0.409,-0.868,0.178,13.245,-12.207,13.794,1
0.414,-0.884,0.169,12.268,-12.146,13,1
0.418,-0.903,0.161,11.414,-12.451,12.39,1
0.423,-0.908,0.167,10.01,-12.756,12.085,1
0.422,-0.906,0.167,8.972,-13.245,11.658,1
0.417,-0.906,0.168,8.057,-14.099,10.071,1
0.416,-0.904,0.162,7.263,-15.137,8.179,1
0.419,-0.912,0.161,6.897,-15.503,6.958,1
0.423,-0.905,0.157,5.981,-15.747,6.226,1
0.425,-0.892,0.15,4.7,-15.991,5.31,1
0.427,-0.883,0.143,3.906,-16.235,4.578,1
0.432,-0.887,0.149,3.418,-16.296,3.784,1
0.433,-0.881,0.159,3.235,-15.808,2.625,1
0.435,-0.911,0.182,4.272,-15.198,1.77,1
0.433,-0.929,0.204,5.432,-13.977,1.16,1
0.428,-0.947,0.221,6.897,-12.756,0.671,1
0.423,-0.951,0.231,7.141,-11.536,0.793,1
0.421,-0.951,0.235,5.981,-10.742,1.221,1
0.428,-0.939,0.242,4.15,-10.071,2.014,1
0.429,-0.931,0.239,3.235,-9.033,2.747,1
0.437,-0.928,0.231,2.197,-8.118,3.479,1
0.441,-0.916,0.214,0.061,-7.446,4.089,1
0.448,-0.904,0.195,-2.502,-7.324,4.272,1
0.451,-0.905,0.192,-5.066,-7.263,4.272,1
0.454,-0.909,0.203,-7.263,-7.019,4.7,1
0.452,-0.899,0.227,-8.667,-6.409,5.127,1
0.444,-0.894,0.245,-9.094,-5.554,4.883,1
0.44,-0.9,0.256,-8.728,-4.456,4.639,1
0.44,-0.898,0.256,-7.935,-3.662,4.089,1
0.437,-0.9,0.25,-7.324,-2.869,3.54,1
0.437,-0.898,0.24,-6.958,-2.136,3.235,1
0.433,-0.88,0.224,-7.69,-2.197,2.563,1
0.429,-0.863,0.203,-8.057,-2.136,2.014,1
0.434,-0.853,0.173,-7.568,-1.831,1.16,1
0.441,-0.866,0.156,-7.08,-1.587,0.793,1
0.444,-0.882,0.16,-7.629,-1.587,0.671,1
0.44,-0.886,0.174,-8.789,-1.892,0.366,1
0.433,-0.88,0.194,-8.972,-2.502,0,1
0.428,-0.878,0.196,-7.263,-2.38,-0.244,1
0.427,-0.886,0.193,-6.348,-1.892,-0.61,1
0.432,-0.895,0.189,-6.409,-1.648,-0.427,1
0.431,-0.893,0.196,-6.287,-1.526,-0.183,1
0.428,-0.895,0.21,-5.554,-1.526,-0.061,1
0.431,-0.904,0.22,-4.822,-1.282,-0.061,1
0.438,-0.896,0.196,-4.456,-1.099,0,1
0.437,-0.87,0.164,-4.272,-1.221,0.305,1
0.429,-0.864,0.163,-4.944,-1.282,0.732,1
0.437,-0.876,0.177,-5.188,-1.16,1.526,1
0.441,-0.891,0.202,-5.188,-0.61,1.892,1
0.439,-0.891,0.214,-4.822,-0.61,2.136,1
0.439,-0.902,0.223,-4.639,-0.854,2.075,1
0.445,-0.908,0.233,-4.395,-1.038,2.136,1
0.44,-0.902,0.239,-4.517,-1.038,1.892,1
0.433,-0.888,0.24,-3.601,-1.038,1.526,1
0.434,-0.892,0.229,-1.648,-0.793,1.038,1
0.443,-0.904,0.2,-0.122,-0.244,0.671,1
0.444,-0.898,0.181,-0.366,-0.061,0.671,1
0.447,-0.887,0.172,-1.038,-0.366,0.732,1
0.448,-0.887,0.178,-1.465,-0.916,0.671,1
0.446,-0.888,0.187,-1.16,-1.282,0.732,1
0.444,-0.887,0.198,-0.488,-1.465,0.854,1
0.442,-0.89,0.207,-0.061,-1.099,1.099,1
0.44,-0.89,0.217,-0.244,-0.732,1.404,1
0.435,-0.892,0.226,0.183,-0.366,1.831,1
0.438,-0.91,0.225,0.183,-0.183,2.319,1
0.441,-0.913,0.225,-0.61,-0.183,2.686,1
0.439,-0.904,0.229,-1.587,-0.427,2.93,1
-0.132,-1.397,0.436,40.833,-67.261,16.602,1
-0.126,-1.35,0.433,32.654,-66.895,21.912,1
-0.113,-1.318,0.408,23.376,-66.284,27.466,1
-0.099,-1.293,0.377,13.855,-64.88,33.508,1
-0.091,-1.249,0.361,7.996,-63.293,39.185,1
-0.09,-1.201,0.349,5.066,-61.829,43.457,1
-0.065,-1.153,0.328,4.822,-60.181,46.448,1
-0.064,-1.112,0.319,5.127,-59.265,48.462,1
-0.066,-1.071,0.323,6.958,-58.533,49.316,1
-0.06,-1.03,0.323,10.071,-57.373,49.5,1
-0.042,-1.021,0.341,11.963,-56.274,49.866,1
-0.041,-1.022,0.357,10.559,-56.335,49.5,1
-0.049,-1,0.365,5.859,-56.458,49.438,1
-0.057,-0.961,0.356,1.587,-55.664,49.988,1
-0.065,-0.919,0.344,-0.366,-54.321,50.415,1
-0.078,-0.867,0.331,3.235,-52.49,50.598,1
-0.08,-0.855,0.301,7.812,-50.598,50.171,1
-0.079,-0.862,0.276,11.23,-48.767,50.903,1
-0.026,-0.861,0.262,13.794,-46.936,53.162,1
-0.049,-0.854,0.27,14.709,-47.119,50.903,1
-0.051,-0.854,0.295,14.954,-46.631,50.11,1
-0.042,-0.859,0.313,14.526,-45.349,49.194,1
-0.041,-0.87,0.331,13.428,-44.189,48.279,1
-0.039,-0.871,0.347,12.573,-43.03,47.485,1
-0.038,-0.87,0.342,9.827,-41.809,46.631,1
-0.03,-0.859,0.332,7.263,-39.917,46.57,1
-0.025,-0.833,0.304,8.545,-37.476,47.058,1
-0.031,-0.826,0.272,12.939,-34.851,48.096,1
0.01,-0.866,0.262,19.592,-32.898,50.72,1
0.005,-0.848,0.215,22.766,-32.288,47.546,1
0.025,-0.854,0.206,24.292,-31.86,47.363,1
0.032,-0.879,0.223,25.818,-32.043,46.997,1
0.037,-0.894,0.255,26.611,-31.982,45.532,1
0.036,-0.899,0.279,29.297,-31.555,44.25,1
0.037,-0.911,0.285,31.189,-30.457,43.091,1
0.054,-0.948,0.285,31.25,-29.236,42.48,1
0.062,-0.963,0.275,28.32,-28.198,42.542,1
0.057,-0.94,0.262,23.437,-26.672,42.725,1
0.068,-0.931,0.238,19.287,-25.33,43.518,1
0.066,-0.929,0.235,15.503,-25.146,44.128,1
0.058,-0.917,0.226,12.695,-24.841,44.189,1
0.066,-0.916,0.212,11.475,-24.292,44.067,1
0.064,-0.906,0.203,11.292,-24.231,43.213,1
0.064,-0.889,0.186,11.658,-24.231,42.114,1
0.075,-0.89,0.175,11.047,-24.292,40.771,1
0.071,-0.868,0.182,11.536,-24.536,39.612,1
0.078,-0.88,0.181,12.878,-24.17,38.208,1
0.091,-0.895,0.187,14.465,-24.109,36.377,1
0.086,-0.864,0.181,16.846,-23.621,34.973,1
0.095,-0.884,0.18,18.433,-23.132,33.02,1
0.097,-0.897,0.185,16.968,-23.01,31.555,1
0.1,-0.919,0.19,14.099,-22.644,30.09,1
0.101,-0.922,0.197,10.681,-22.156,29.358,1
0.096,-0.925,0.199,8.24,-21.667,28.809,1
0.098,-0.926,0.196,4.883,-21.606,27.771,1
0.099,-0.906,0.182,3.54,-21.179,27.344,1
0.112,-0.898,0.159,3.906,-20.02,26.672,1
0.111,-0.908,0.155,2.93,-19.165,26.55,1
0.125,-0.902,0.157,2.502,-18.127,25.085,1
0.133,-0.916,0.169,2.441,-17.334,23.499,1
0.145,-0.935,0.169,3.479,-16.907,22.461,1
0.154,-0.941,0.156,5.31,-16.785,21.057,1
0.151,-0.938,0.164,7.69,-16.968,19.714,1
0.154,-0.948,0.175,10.437,-17.334,18.25,1
0.151,-0.945,0.182,10.925,-17.456,16.968,1
0.154,-0.953,0.195,9.033,-17.151,15.991,1
0.16,-0.949,0.203,5.676,-16.785,13.428,1
0.166,-0.945,0.202,3.601,-15.869,11.597,1
0.178,-0.94,0.196,3.113,-14.771,9.949,1
0.184,-0.941,0.201,3.601,-14.16,8.606,1
0.191,-0.947,0.213,4.639,-13.855,7.263,1
0.189,-0.961,0.211,6.714,-13.611,5.615,1
0.189,-0.982,0.202,8.728,-13.123,4.395,1
0.179,-0.996,0.185,7.385,-12.939,5.127,1
0.183,-1.01,0.175,4.517,-12.146,6.348,1
0.19,-0.998,0.168,0.61,-10.864,5.432,1
0.187,-0.997,0.177,-3.723,-10.498,5.859,1
0.184,-0.989,0.18,-7.751,-9.949,5.92,1
0.19,-0.984,0.184,-10.315,-9.338,5.859,1
0.19,-0.973,0.187,-10.193,-8.85,5.798,1
0.188,-0.961,0.196,-8.057,-8.606,6.042,1
0.185,-0.961,0.187,-5.249,-8.179,6.165,1
0.193,-0.985,0.177,-2.136,-7.568,5.798,1
0.193,-0.993,0.185,-2.075,-7.385,5.554,1
0.187,-1.001,0.197,-3.113,-7.385,5.92,1
0.186,-1.001,0.197,-4.333,-7.08,5.981,1
0.187,-0.996,0.203,-5.432,-6.958,6.226,1
0.185,-0.997,0.209,-5.798,-6.836,6.714,1
0.19,-0.991,0.206,-6.653,-6.165,6.897,1
0.203,-0.989,0.201,-6.775,-5.188,7.141,1
0.204,-0.989,0.21,-6.042,-4.822,7.08,1
0.207,-0.981,0.203,-6.104,-4.333,6.958,1
0.207,-0.966,0.205,-6.47,-3.845,7.141,1
0.206,-0.96,0.22,-7.08,-3.662,7.568,1
0.204,-0.957,0.239,-7.812,-3.296,7.446,1
0.206,-0.964,0.241,-7.935,-2.625,7.385,1
0.212,-0.964,0.233,-7.812,-1.343,6.958,1
0.214,-0.956,0.235,-9.094,-0.671,7.141,1
0.215,-0.946,0.234,-10.193,-0.122,6.836,1
0.218,-0.938,0.22,-9.583,0.671,6.104,1
0.219,-0.945,0.215,-8.728,0.854,5.31,1
0.221,-0.95,0.218,-8.85,0.732,5.127,1
0.222,-0.948,0.218,-8.85,0.732,4.517,1
0.223,-0.946,0.219,-8.911,0.732,3.906,1
0.22,-0.95,0.209,-8.484,0.854,3.296,1
0.222,-0.952,0.187,-6.653,0.732,2.625,1
0.217,-0.961,0.188,-4.944,0.305,2.197,1
0.216,-0.969,0.188,-3.418,-0.427,1.221,1
0.214,-0.97,0.179,-2.869,-1.16,0.977,1
0.218,-0.951,0.17,-3.418,-1.892,0.916,1
0.22,-0.947,0.179,-3.418,-2.38,0.854,1
0.216,-0.959,0.201,-2.991,-3.113,1.038,1
0.214,-0.959,0.221,-3.296,-3.479,1.221,1
0.218,-0.947,0.238,-4.028,-3.479,1.16,1
0.216,-0.941,0.255,-3.967,-2.808,0.793,1
0.216,-0.96,0.256,-3.418,-2.014,0.366,1
0.22,-0.97,0.245,-2.808,-1.221,0.61,1
0.226,-0.968,0.224,-1.465,-0.488,1.221,1
0.226,-0.969,0.217,-0.488,-0.305,1.526,1
-0.11,-1.389,0.475,102.295,-37.048,19.592,1
-0.103,-1.36,0.464,94.971,-37.17,27.1,1
-0.083,-1.364,0.447,87.097,-38.757,33.752,1
-0.089,-1.331,0.427,79.407,-40.527,40.588,1
-0.096,-1.268,0.405,76.111,-41.016,46.997,1
-0.096,-1.24,0.384,76.05,-41.565,52.368,1
-0.09,-1.204,0.362,78.674,-41.382,57.373,1
-0.07,-1.184,0.345,78.552,-42.053,62.134,1
-0.047,-1.181,0.332,75.378,-43.823,66.04,1
-0.047,-1.143,0.337,71.411,-45.166,69.214,1
-0.052,-1.097,0.331,69.397,-45.715,71.472,1
-0.026,-1.089,0.325,67.444,-46.631,73.242,1
-0.028,-1.082,0.322,64.575,-48.401,74.402,1
-0.028,-1.062,0.343,61.89,-49.255,75.867,1
-0.021,-1.041,0.363,56.946,-50.049,76.66,1
-0.01,-1.026,0.371,49.194,-50.598,77.332,1
-0.009,-0.991,0.361,41.87,-51.086,77.515,1
-0.016,-0.952,0.363,37.354,-51.27,77.087,1
-0.015,-0.93,0.338,36.072,-50.598,75.989,1
-0.01,-0.913,0.315,40.039,-49.133,75.256,1
0.007,-0.919,0.301,44.189,-47.668,74.28,1
0.029,-0.922,0.298,44.495,-47.424,72.449,1
0.041,-0.907,0.316,41.26,-47.302,70.679,1
0.036,-0.897,0.335,37.048,-47.18,68.665,1
0.043,-0.88,0.341,34.546,-46.387,67.017,1
0.045,-0.865,0.332,34.79,-44.556,65.063,1
0.059,-0.87,0.311,35.156,-43.457,62.5,1
0.055,-0.886,0.302,32.837,-43.03,60.364,1
0.065,-0.881,0.287,28.564,-42.053,58.533,1
0.068,-0.87,0.279,24.78,-40.466,56.702,1
0.082,-0.857,0.27,23.743,-39.185,54.81,1
0.088,-0.871,0.268,23.193,-38.269,52.368,1
0.093,-0.866,0.268,22.644,-36.682,50.964,1
0.099,-0.865,0.283,20.508,-35.034,49.561,1
0.107,-0.848,0.29,18.127,-33.875,47.546,1
0.101,-0.835,0.29,18.005,-31.982,45.532,1
0.114,-0.849,0.285,20.386,-29.846,43.762,1
0.123,-0.854,0.279,21.423,-28.381,42.053,1
0.096,-0.837,0.262,22.278,-26.611,40.588,1
0.145,-0.85,0.238,22.888,-23.682,40.039,1
0.145,-0.859,0.227,20.996,-22.583,38.147,1
0.143,-0.853,0.212,19.226,-21.851,36.316,1
0.157,-0.86,0.197,17.395,-20.691,34.851,1
0.159,-0.862,0.189,15.686,-20.142,33.752,1
0.164,-0.864,0.187,13.916,-20.081,32.349,1
0.16,-0.854,0.192,11.963,-20.142,30.884,1
0.166,-0.843,0.203,10.315,-20.02,29.48,1
0.185,-0.855,0.201,10.559,-19.043,27.71,1
0.183,-0.855,0.18,11.047,-18.188,24.658,1
0.193,-0.857,0.162,12.329,-17.151,22.461,1
0.211,-0.877,0.154,13.062,-16.357,20.63,1
0.213,-0.891,0.161,11.658,-16.418,18.738,1
0.21,-0.891,0.165,10.437,-16.479,17.09,1
0.215,-0.897,0.155,9.888,-16.235,15.503,1
0.224,-0.912,0.141,10.925,-16.052,13.733,1
0.231,-0.915,0.147,11.047,-16.113,12.207,1
0.226,-0.903,0.156,8.85,-16.418,10.559,1
0.225,-0.903,0.166,6.958,-16.968,9.216,1
0.229,-0.907,0.162,5.859,-16.968,7.874,1
0.237,-0.919,0.151,5.859,-16.602,6.958,1
0.246,-0.934,0.149,6.165,-16.174,6.287,1
0.252,-0.946,0.153,6.653,-16.235,5.859,1
0.256,-0.951,0.143,6.714,-16.235,4.822,1
0.247,-0.943,0.129,7.568,-16.235,3.662,1
0.246,-0.958,0.121,9.46,-16.174,3.296,1
0.244,-0.975,0.132,9.949,-16.113,3.113,1
0.245,-0.977,0.15,9.644,-16.174,3.235,1
0.242,-0.978,0.161,10.254,-16.052,2.991,1
0.238,-0.986,0.161,9.705,-15.869,2.747,1
0.234,-1,0.17,6.958,-15.93,2.869,1
0.243,-1,0.172,2.563,-15.564,3.357,1
0.248,-0.977,0.177,-1.465,-15.137,3.357,1
0.246,-0.97,0.185,-2.625,-15.198,2.93,1
0.244,-0.974,0.185,-2.686,-14.587,2.319,1
0.252,-0.98,0.191,-2.808,-13.916,2.38,1
0.221,-0.976,0.194,-2.136,-13.184,2.808,1
0.232,-0.97,0.184,-0.916,-12.146,2.319,1
0.238,-0.97,0.168,-0.854,-10.62,1.343,1
0.24,-0.964,0.166,-1.587,-9.766,1.343,1
0.239,-0.963,0.175,-2.93,-9.216,1.16,1
0.239,-0.974,0.176,-3.174,-8.728,0.732,1
0.247,-0.988,0.172,-2.563,-8.362,0.427,1
0.267,-0.986,0.17,-1.892,-8.789,-0.061,1
0.221,-0.994,0.17,-1.099,-9.399,0.122,1
0.232,-0.986,0.175,-1.16,-9.094,-0.061,1
0.23,-0.979,0.183,-2.502,-8.362,-0.488,1
0.223,-0.97,0.18,-3.052,-7.751,0.244,1
0.223,-0.977,0.175,-2.93,-6.775,1.221,1
0.229,-0.984,0.169,-3.479,-6.042,1.892,1
0.228,-0.982,0.167,-5.005,-5.493,2.625,1
0.223,-0.985,0.175,-6.042,-5.432,3.296,1
0.218,-0.986,0.193,-6.165,-4.822,3.723,1
0.217,-0.983,0.204,-5.798,-4.089,4.272,1
0.225,-0.984,0.204,-5.371,-3.479,5.005,1
0.217,-0.982,0.199,-5.737,-3.235,5.92,1
0.223,-0.967,0.186,-5.92,-2.441,5.859,1
0.23,-0.962,0.181,-6.409,-1.831,5.92,1
0.232,-0.954,0.182,-6.714,-1.282,6.042,1
0.236,-0.96,0.182,-7.019,-0.671,5.798,1
0.238,-0.956,0.184,-7.202,-0.366,5.554,1
0.238,-0.948,0.19,-5.493,0,5.432,1
0.238,-0.963,0.187,-4.028,0.244,4.333,1
0.242,-0.958,0.183,-4.028,0.366,3.601,1
0.242,-0.962,0.186,-4.456,0.366,2.869,1
0.24,-0.96,0.188,-4.639,0.427,2.441,1
0.239,-0.964,0.185,-5.188,0.61,1.892,1
0.248,-0.951,0.171,-6.287,0.549,1.221,1
0.265,-0.947,0.148,-6.531,0.427,0.671,1
0.252,-0.945,0.141,-5.432,0,0.671,1
0.257,-0.952,0.144,-3.784,-0.183,0.061,1
0.255,-0.967,0.145,-2.197,-0.732,-0.549,1
0.252,-0.989,0.155,-0.854,-1.16,-0.916,1
0.246,-0.986,0.169,-0.366,-1.709,-0.793,1
0.243,-0.983,0.183,-0.549,-2.197,-0.366,1
0.24,-0.978,0.189,-1.282,-2.197,-0.122,1
0.244,-0.982,0.19,-2.197,-1.953,0.427,1
0.247,-0.987,0.195,-2.93,-1.526,1.343,1
0.253,-0.98,0.206,-3.845,-1.16,1.953,1
0.258,-0.98,0.208,-4.028,-1.221,2.38,1
-0.168,-1.403,0.545,37.17,-30.09,31.982,1
-0.162,-1.372,0.551,37.964,-25.085,40.466,1
-0.142,-1.31,0.547,45.105,-19.287,49.194,1
-0.123,-1.302,0.497,54.932,-13.611,57.434,1
-0.093,-1.304,0.433,64.27,-9.094,66.162,1
-0.068,-1.275,0.399,70.068,-5.981,74.463,1
-0.052,-1.261,0.366,70.19,-4.883,80.139,1
-0.029,-1.217,0.334,66.589,-5.066,84.351,1
-0.028,-1.117,0.298,66.65,-6.531,87.341,1
-0.017,-1.071,0.256,69.153,-8.728,87.524,1
0.005,-1.092,0.224,70.251,-11.78,87.524,1
0.033,-1.05,0.212,69.336,-15.625,88.318,1
0.046,-1.019,0.231,67.993,-19.653,87.708,1
0.045,-1.029,0.256,66.589,-23.437,86.06,1
0.062,-1.011,0.259,61.951,-27.344,84.167,1
0.092,-0.952,0.249,57.434,-30.884,81.543,1
0.1,-0.945,0.249,55.969,-34.058,77.759,1
0.096,-0.949,0.215,57.861,-36.804,75.623,1
0.105,-0.929,0.159,59.57,-38.818,73.792,1
0.118,-0.905,0.108,59.692,-40.466,72.144,1
0.129,-0.901,0.086,58.411,-43.213,70.862,1
0.137,-0.908,0.097,54.871,-46.448,69.031,1
0.134,-0.935,0.139,48.462,-48.95,66.101,1
0.132,-0.928,0.193,40.161,-51.086,63.049,1
0.12,-0.894,0.249,33.264,-52.246,60.242,1
0.11,-0.859,0.281,31.067,-52.856,57.617,1
0.109,-0.854,0.279,30.334,-52.49,54.688,1
0.114,-0.852,0.239,31.006,-51.941,52.856,1
0.127,-0.855,0.228,33.264,-50.049,51.88,1
0.132,-0.855,0.197,34.18,-49.744,51.575,1
0.144,-0.855,0.155,31.067,-50.72,51.331,1
0.146,-0.845,0.136,26.306,-50.72,50.659,1
0.155,-0.862,0.136,21.545,-50.781,49.805,1
0.163,-0.875,0.162,17.029,-51.575,48.34,1
0.154,-0.87,0.221,12.512,-51.819,46.265,1
0.142,-0.859,0.266,9.094,-51.636,44.067,1
0.137,-0.836,0.287,7.935,-51.025,41.992,1
0.137,-0.813,0.276,9.827,-49.194,40.283,1
0.142,-0.821,0.25,11.963,-47.607,38.696,1
0.156,-0.839,0.237,12.939,-46.204,37.964,1
0.173,-0.849,0.224,13.245,-44.312,37.17,1
0.187,-0.87,0.207,10.986,-42.969,35.583,1
0.189,-0.889,0.197,8.423,-42.236,33.997,1
0.195,-0.877,0.201,6.836,-42.114,32.104,1
0.187,-0.868,0.218,4.15,-42.114,30.029,1
0.182,-0.85,0.24,3.723,-41.443,28.259,1
0.186,-0.849,0.255,4.883,-40.039,26.184,1
0.187,-0.863,0.262,5.066,-37.964,24.78,1
0.197,-0.881,0.265,4.883,-36.072,24.292,1
0.209,-0.885,0.257,3.723,-33.569,23.987,1
0.209,-0.881,0.265,1.526,-31.433,23.376,1
0.209,-0.862,0.253,2.319,-29.297,22.278,1
0.208,-0.868,0.23,5.371,-26.978,20.569,1
0.216,-0.879,0.188,10.315,-24.353,19.897,1
0.231,-0.897,0.184,14.343,-21.973,19.714,1
0.231,-0.909,0.19,16.479,-20.142,19.714,1
0.235,-0.914,0.213,18.311,-18.25,19.409,1
0.235,-0.934,0.235,18.372,-16.724,18.127,1
0.245,-0.943,0.247,17.151,-15.381,17.151,1
0.25,-0.955,0.262,16.602,-14.404,16.296,1
0.254,-0.961,0.269,12.756,-13.611,14.771,1
0.255,-0.951,0.262,5.249,-13.245,13.123,1
0.26,-0.93,0.255,-2.502,-13.55,11.841,1
0.26,-0.899,0.237,-7.202,-13.062,10.132,1
0.254,-0.875,0.219,-9.644,-12.512,8.118,1
0.266,-0.868,0.188,-9.644,-11.23,6.226,1
0.272,-0.883,0.182,-7.019,-9.888,4.456,1
0.273,-0.917,0.18,-3.113,-8.789,2.625,1
0.285,-0.96,0.161,0.305,-7.324,1.282,1
0.289,-0.961,0.157,1.465,-6.409,0.549,1
0.284,-0.966,0.167,1.709,-6.47,0.427,1
0.278,-0.968,0.186,3.296,-6.226,0.366,1
0.266,-0.975,0.211,5.066,-5.371,0.183,1
0.267,-0.998,0.22,5.005,-4.578,0.183,1
0.279,-1.013,0.212,2.502,-3.845,0.61,1
0.289,-1.005,0.196,-0.488,-3.601,1.16,1
0.291,-0.998,0.185,-3.418,-4.028,1.343,1
0.294,-0.987,0.182,-6.836,-4.333,1.77,1
0.302,-0.949,0.164,-7.263,-4.272,2.258,1
0.297,-0.95,0.154,-4.456,-4.089,2.563,1
0.296,-0.967,0.138,-0.977,-3.723,2.808,1
0.304,-0.979,0.14,1.404,-3.174,3.662,1
0.301,-0.98,0.152,1.343,-3.113,4.089,1
0.295,-0.997,0.173,0.061,-3.235,4.395,1
0.289,-0.993,0.183,-1.77,-3.113,4.456,1
0.288,-0.995,0.187,-4.578,-3.235,4.7,1
0.29,-0.99,0.189,-7.751,-3.662,5.066,1
0.289,-0.957,0.194,-9.583,-4.578,5.737,1
0.286,-0.931,0.201,-8.057,-5.127,5.31,1
0.285,-0.936,0.195,-6.409,-5.554,4.272,1
0.292,-0.938,0.191,-6.47,-5.493,3.784,1
0.293,-0.911,0.179,-5.188,-5.31,3.54,1
0.276,-0.919,0.183,-2.014,-4.578,3.296,1
0.277,-0.925,0.197,0.122,-3.723,2.869,1
0.274,-0.957,0.211,-0.122,-3.052,2.625,1
0.266,-0.926,0.238,-1.892,-1.831,2.686,1
0.26,-0.948,0.233,-3.418,-0.977,2.563,1
0.268,-0.949,0.218,-4.395,-0.183,2.991,1
0.281,-0.94,0.205,-6.897,0.305,3.418,1
0.291,-0.932,0.191,-8.301,0.183,3.479,1
0.292,-0.923,0.18,-6.287,0.244,3.357,1
0.294,-0.914,0.176,-2.136,0.488,2.991,1
0.295,-0.923,0.174,0.732,0.366,2.258,1
0.297,-0.944,0.173,1.77,0.366,1.648,1
0.301,-0.954,0.174,1.465,0.61,1.343,1
0.299,-0.946,0.186,0.488,0.61,1.038,1
0.297,-0.942,0.202,0,0.244,0.732,1
0.299,-0.943,0.2,0.305,0,0.61,1
0.302,-0.944,0.193,1.099,0.183,0.427,1
0.303,-0.951,0.183,1.404,0.427,0.427,1
0.307,-0.96,0.177,1.892,0.549,0.671,1
0.31,-0.963,0.18,2.197,0.427,0.488,1
0.306,-0.959,0.182,2.625,0.061,0.122,1
0.302,-0.951,0.187,3.479,-0.244,-0.122,1
0.297,-0.955,0.188,4.089,-0.366,-0.427,1
0.294,-0.964,0.185,3.357,0.061,-0.793,1
0.297,-0.97,0.19,1.526,0.305,-0.916,1
0.297,-0.966,0.194,1.038,-0.061,-1.099,1
0.297,-0.967,0.198,2.197,-0.549,-1.465,1
-0.2,-1.555,0.516,89.417,-21.179,-33.447,1
-0.175,-1.545,0.434,90.759,-17.944,-16.418,1
-0.12,-1.273,0.494,62.073,-18.005,-18.921,1
-0.228,-1.241,0.458,55.603,-25.818,-16.357,1
-0.134,-1.467,0.454,50.171,-24.414,-4.822,1
-0.109,-1.448,0.42,42.236,-25.879,6.714,1
-0.148,-1.41,0.425,41.443,-29.297,16.602,1
-0.153,-1.408,0.432,46.753,-29.907,27.039,1
-0.13,-1.423,0.434,50.11,-28.015,36.987,1
-0.093,-1.413,0.433,49.683,-25.757,45.288,1
-0.069,-1.376,0.409,48.584,-23.193,52.246,1
-0.069,-1.319,0.391,51.331,-20.508,58.594,1
-0.071,-1.282,0.388,56.702,-18.005,63.904,1
-0.043,-1.248,0.374,62.5,-15.747,69.214,1
-0.017,-1.221,0.349,67.017,-14.343,73.975,1
0.002,-1.211,0.318,68.359,-15.137,77.881,1
0.025,-1.19,0.304,65.369,-17.883,81.055,1
0.021,-1.141,0.3,59.082,-22.156,82.886,1
0.011,-1.108,0.312,51.208,-26.062,83.252,1
0.016,-1.09,0.309,45.471,-29.48,83.252,1
0.012,-1.035,0.296,44.312,-32.288,83.008,1
-0.006,-0.986,0.288,46.204,-34.302,81.97,1
0.001,-0.957,0.292,47.791,-35.828,80.322,1
0.015,-0.94,0.286,47.852,-36.926,78.186,1
0.027,-0.946,0.266,46.021,-38.208,75.989,1
0.045,-0.953,0.258,43.274,-39.429,74.463,1
0.056,-0.933,0.248,41.687,-40.71,73.486,1
0.068,-0.925,0.233,40.588,-42.053,72.205,1
0.075,-0.921,0.231,37.781,-43.762,70.862,1
0.075,-0.903,0.239,34.18,-45.166,69.397,1
0.086,-0.887,0.25,31.25,-46.021,67.81,1
0.091,-0.893,0.245,28.809,-46.753,65.674,1
0.091,-0.891,0.24,29.236,-47.424,64.331,1
0.084,-0.887,0.228,30.884,-47.424,63.66,1
0.09,-0.882,0.208,31.555,-47.058,62.988,1
0.109,-0.868,0.221,29.663,-47.058,62.256,1
0.104,-0.873,0.252,26.306,-48.462,60.852,1
0.099,-0.857,0.278,22.888,-48.828,58.289,1
0.102,-0.844,0.283,21.912,-48.523,55.908,1
0.106,-0.855,0.275,21.484,-48.218,53.833,1
0.113,-0.862,0.274,19.409,-48.218,52.429,1
0.119,-0.855,0.257,17.517,-48.096,50.964,1
0.12,-0.854,0.243,15.93,-47.913,49.866,1
0.12,-0.859,0.234,13.855,-47.668,48.34,1
0.135,-0.85,0.225,13.367,-46.326,47.058,1
0.133,-0.845,0.225,13.672,-45.288,45.227,1
0.132,-0.851,0.235,13.855,-44.312,42.908,1
0.14,-0.863,0.25,13.977,-43.213,40.833,1
0.141,-0.872,0.265,13.184,-42.114,38.635,1
0.143,-0.865,0.278,12.39,-40.405,36.865,1
0.143,-0.85,0.293,13.672,-38.757,35.156,1
0.141,-0.875,0.3,13.916,-37.659,32.837,1
0.149,-0.889,0.281,13.733,-36.255,31.128,1
0.163,-0.904,0.256,12.39,-34.79,29.541,1
0.169,-0.89,0.234,10.864,-33.691,28.748,1
0.17,-0.876,0.219,11.78,-32.654,27.649,1
0.168,-0.883,0.204,11.658,-31.616,26.245,1
0.186,-0.881,0.175,11.047,-30.212,25.269,1
0.204,-0.888,0.165,10.62,-29.236,24.231,1
0.205,-0.908,0.184,7.446,-28.625,23.01,1
0.203,-0.903,0.212,3.723,-28.259,21.423,1
0.199,-0.912,0.224,2.075,-27.771,19.592,1
0.203,-0.911,0.224,2.869,-26.855,18.188,1
0.207,-0.911,0.234,4.883,-25.696,17.212,1
0.209,-0.909,0.237,6.47,-24.475,16.418,1
0.217,-0.918,0.245,7.996,-22.888,15.686,1
0.219,-0.931,0.246,8.789,-21.301,14.771,1
0.222,-0.934,0.243,9.399,-19.287,14.16,1
0.228,-0.944,0.244,8.362,-17.578,13.611,1
0.234,-0.929,0.225,6.897,-16.052,13.123,1
0.241,-0.924,0.236,7.385,-14.404,11.658,1
0.236,-0.925,0.25,9.766,-12.512,9.949,1
0.236,-0.96,0.249,14.587,-10.132,7.996,1
0.236,-0.981,0.243,18.799,-8.362,6.47,1
0.242,-1.004,0.228,19.836,-7.446,5.92,1
0.25,-1.003,0.209,18.188,-7.08,5.92,1
0.252,-1.021,0.201,14.648,-6.775,6.104,1
0.258,-1.027,0.18,8.789,-7.019,7.202,1
0.262,-1.01,0.156,1.526,-7.568,8.362,1
0.263,-0.967,0.14,-4.211,-8.545,9.033,1
0.26,-0.949,0.124,-6.714,-9.705,8.85,1
0.27,-0.931,0.104,-7.263,-10.681,7.874,1
0.278,-0.934,0.099,-7.141,-11.292,6.775,1
0.285,-0.942,0.113,-6.104,-12.024,6.104,1
0.283,-0.935,0.138,-4.761,-12.512,5.188,1
0.284,-0.94,0.151,-2.319,-12.817,4.333,1
0.284,-0.944,0.166,-0.61,-13.184,4.028,1
0.288,-0.944,0.171,-0.122,-13.367,3.784,1
0.293,-0.948,0.166,0.61,-13.55,3.296,1
0.29,-0.943,0.163,1.16,-14.16,2.991,1
0.287,-0.946,0.175,2.625,-14.465,2.808,1
0.278,-0.948,0.192,5.005,-14.221,2.441,1
0.263,-0.952,0.202,7.69,-13.55,2.075,1
0.255,-0.959,0.207,9.216,-12.817,2.319,1
0.253,-0.983,0.216,7.751,-11.963,3.052,1
0.255,-0.989,0.234,4.089,-11.108,4.15,1
0.255,-0.984,0.256,0.122,-10.132,4.944,1
0.258,-0.973,0.258,-1.282,-9.338,5.554,1
0.262,-0.966,0.257,-1.038,-8.545,5.676,1
0.275,-0.963,0.234,0.488,-7.629,5.554,1
0.28,-0.955,0.218,0.977,-6.775,5.615,1
0.279,-0.949,0.218,0.488,-5.798,5.432,1
0.273,-0.956,0.226,-0.122,-4.761,4.944,1
0.269,-0.971,0.236,-1.465,-3.723,4.761,1
0.265,-0.973,0.249,-3.601,-2.869,4.578,1
0.261,-0.959,0.252,-5.859,-2.136,4.333,1
0.264,-0.946,0.241,-6.897,-1.465,3.906,1
0.271,-0.935,0.217,-7.141,-1.099,3.296,1
0.276,-0.934,0.208,-6.775,-0.916,2.747,1
0.274,-0.935,0.203,-6.042,-0.671,2.258,1
0.275,-0.923,0.184,-4.333,-0.122,1.587,1
0.275,-0.924,0.174,-3.601,-0.122,0.732,1
0.276,-0.936,0.179,-4.272,0,0.427,1
0.275,-0.945,0.194,-6.287,0.122,0.244,1
0.274,-0.94,0.219,-7.874,0.488,0.061,1
0.27,-0.934,0.225,-5.554,0.854,-0.305,1
0.276,-0.951,0.196,-1.587,1.099,-0.732,1
0.286,-0.965,0.18,-0.427,1.16,-0.61,1
0.285,-0.958,0.183,-1.831,1.038,0,1
-0.033,-1.622,0.415,74.28,-30.09,14.465,1
-0.021,-1.553,0.472,62.805,-27.71,30.579,1
-0.022,-1.48,0.53,58.228,-23.315,44.006,1
-0.002,-1.486,0.542,60.73,-16.846,55.786,1
0.039,-1.432,0.514,66.223,-9.888,67.932,1
0.067,-1.372,0.485,69.458,-4.333,78.552,1
0.127,-1.356,0.442,68.542,-1.343,86.853,1
0.161,-1.308,0.402,60.364,-1.465,94.666,1
0.172,-1.218,0.365,49.133,-3.967,100.22,1
0.167,-1.127,0.341,40.71,-8.057,103.271,1
0.16,-1.048,0.329,36.011,-12.207,104.126,1
0.164,-0.991,0.321,34.18,-15.808,103.76,1
0.183,-0.962,0.319,33.264,-19.348,101.624,1
0.192,-0.912,0.302,34.729,-22.339,98.755,1
0.184,-0.877,0.3,37.109,-24.78,95.337,1
0.173,-0.847,0.299,41.565,-27.222,91.003,1
0.173,-0.832,0.296,46.753,-29.48,86.121,1
0.171,-0.835,0.293,52.368,-31.372,80.566,1
0.176,-0.853,0.273,55.908,-33.569,75.378,1
0.172,-0.85,0.271,57.678,-36.133,71.35,1
0.141,-0.825,0.271,60.547,-38.635,67.566,1
0.147,-0.829,0.25,65.491,-39.795,63.904,1
0.166,-0.854,0.226,70.313,-40.405,60.669,1
0.175,-0.875,0.229,71.411,-41.992,58.533,1
0.181,-0.875,0.257,67.566,-44.006,56.58,1
0.192,-0.877,0.289,60.913,-46.143,54.199,1
0.187,-0.861,0.304,53.528,-47.729,51.392,1
0.187,-0.844,0.299,48.706,-48.828,48.828,1
0.197,-0.838,0.284,47.668,-48.828,47.302,1
0.212,-0.863,0.248,47.18,-48.767,45.776,1
0.21,-0.866,0.225,45.715,-49.133,45.349,1
0.208,-0.844,0.215,43.396,-48.889,45.227,1
0.223,-0.82,0.236,43.335,-47.302,45.471,1
0.221,-0.828,0.257,45.41,-46.387,44.373,1
0.22,-0.835,0.273,46.936,-45.105,42.847,1
0.217,-0.844,0.284,46.997,-43.213,41.748,1
0.235,-0.846,0.29,45.898,-41.809,40.955,1
0.23,-0.846,0.283,45.227,-40.894,39.551,1
0.231,-0.85,0.266,44.434,-40.222,38.147,1
0.25,-0.888,0.245,40.222,-40.222,36.987,1
0.268,-0.889,0.232,33.691,-40.222,36.133,1
0.262,-0.878,0.245,27.039,-40.344,34.058,1
0.264,-0.871,0.237,22.4,-40.283,32.959,1
0.264,-0.862,0.225,20.081,-40.1,31.799,1
0.263,-0.85,0.21,19.043,-39.551,30.396,1
0.264,-0.845,0.203,18.005,-38.818,29.236,1
0.262,-0.853,0.22,16.174,-37.598,27.771,1
0.27,-0.872,0.235,14.587,-36.072,26.428,1
0.274,-0.882,0.245,13.123,-34.241,25.024,1
0.265,-0.876,0.25,13.733,-32.41,24.048,1
0.273,-0.886,0.245,16.296,-30.396,22.705,1
0.276,-0.893,0.241,17.029,-28.503,21.545,1
0.284,-0.888,0.232,17.151,-26.428,20.874,1
0.293,-0.896,0.224,15.747,-24.597,19.653,1
0.288,-0.897,0.226,12.451,-22.827,18.433,1
0.298,-0.886,0.212,9.583,-21.667,17.09,1
0.297,-0.884,0.192,9.338,-20.447,15.503,1
0.298,-0.895,0.179,8.484,-19.531,14.038,1
0.31,-0.882,0.151,8.545,-18.127,12.756,1
0.316,-0.898,0.156,9.277,-17.212,11.353,1
0.319,-0.9,0.17,9.277,-16.174,9.888,1
0.318,-0.898,0.183,10.925,-14.954,8.057,1
0.317,-0.925,0.193,11.658,-13.794,6.104,1
0.321,-0.933,0.208,11.108,-12.573,5.554,1
0.332,-0.941,0.219,11.047,-11.292,5.066,1
0.336,-0.954,0.217,10.925,-9.888,4.578,1
0.348,-0.943,0.203,12.39,-8.484,4.517,1
0.349,-0.938,0.196,13.855,-7.446,4.15,1
0.328,-0.936,0.167,15.686,-6.348,3.906,1
0.371,-0.927,0.128,19.287,-4.578,4.883,1
0.368,-0.939,0.106,21.545,-4.333,4.395,1
0.366,-0.946,0.074,21.484,-4.761,3.418,1
0.38,-0.969,0.063,20.325,-5.432,3.54,1
0.383,-1,0.062,17.09,-6.531,3.235,1
0.373,-1.011,0.07,10.62,-8.423,2.991,1
0.366,-1.005,0.097,4.7,-10.62,3.723,1
0.358,-0.995,0.125,-0.549,-12.268,4.639,1
0.354,-0.977,0.134,-5.92,-13.855,5.188,1
0.353,-0.953,0.138,-9.888,-15.259,5.798,1
0.354,-0.94,0.136,-11.292,-16.113,6.042,1
0.36,-0.916,0.11,-8.24,-16.174,6.409,1
0.364,-0.93,0.103,-3.052,-16.235,6.165,1
0.37,-0.939,0.107,1.038,-15.869,6.165,1
0.374,-0.952,0.114,4.272,-15.198,6.47,1
0.368,-0.959,0.135,5.737,-14.526,6.897,1
0.362,-0.97,0.159,2.319,-13.916,7.507,1
0.362,-0.958,0.198,-3.113,-13.611,8.24,1
0.356,-0.947,0.224,-7.507,-13.062,8.545,1
0.358,-0.943,0.232,-8.423,-12.085,8.667,1
0.364,-0.937,0.234,-7.874,-11.353,8.179,1
0.363,-0.928,0.234,-7.324,-10.559,7.507,1
0.365,-0.926,0.229,-6.653,-9.277,6.714,1
0.361,-0.91,0.228,-5.798,-8.118,6.042,1
0.354,-0.904,0.225,-5.249,-6.653,5.188,1
0.356,-0.904,0.203,-4.089,-5.005,5.005,1
0.358,-0.916,0.19,-4.639,-3.784,4.639,1
0.365,-0.913,0.178,-6.653,-2.625,4.517,1
0.367,-0.906,0.178,-8.179,-1.526,3.662,1
0.365,-0.906,0.185,-7.629,-1.038,2.563,1
0.362,-0.914,0.191,-5.676,-0.305,1.343,1
0.361,-0.915,0.192,-4.517,0.122,0.427,1
0.359,-0.914,0.197,-3.967,0.305,-0.305,1
0.358,-0.917,0.197,-3.906,0.549,-1.16,1
0.359,-0.927,0.181,-4.944,0.916,-1.526,1
0.362,-0.93,0.166,-6.165,0.854,-1.343,1
0.365,-0.922,0.151,-7.263,0.793,-0.61,1
0.372,-0.911,0.152,-7.568,0.732,0.122,1
0.373,-0.898,0.142,-5.798,0.732,0.549,1
0.379,-0.897,0.125,-2.869,0.854,0.732,1
0.379,-0.917,0.132,-2.625,0.854,0.671,1
0.38,-0.922,0.157,-4.578,0.793,0.977,1
0.37,-0.906,0.171,-5.249,0.854,1.038,1
0.366,-0.921,0.173,-3.845,0.854,1.221,1
0.37,-0.927,0.175,-2.136,0.732,1.953,1
0.379,-0.928,0.178,-0.427,0.61,2.563,1
0.378,-0.908,0.168,0.427,0.183,2.441,1
0.371,-0.909,0.169,-0.488,0,1.343,1
0.365,-0.935,0.177,-1.709,-0.427,0.854,1
0.368,-0.925,0.187,-2.563,-0.366,1.038,1
-0.059,-1.667,0.359,114.136,-21.545,-39.124,1
-0.085,-1.545,0.367,103.21,-18.127,-27.161,1
-0.044,-1.647,0.373,91.614,-12.573,-13.977,1
0.023,-1.775,0.388,77.148,-8.24,0.854,1
0.059,-1.676,0.385,57.922,-8.911,14.526,1
0.041,-1.524,0.384,42.725,-14.587,25.024,1
0.013,-1.428,0.369,38.452,-20.447,35.034,1
0.017,-1.379,0.341,42.603,-23.254,45.959,1
0.042,-1.334,0.3,48.645,-23.315,55.542,1
0.065,-1.289,0.271,51.208,-23.499,62.927,1
0.079,-1.242,0.243,49.805,-23.56,68.787,1
0.104,-1.201,0.215,47.668,-23.315,72.693,1
0.123,-1.156,0.206,49.377,-23.682,75.317,1
0.125,-1.126,0.229,54.688,-24.78,76.599,1
0.13,-1.127,0.248,60.364,-26.306,77.515,1
0.153,-1.143,0.252,61.829,-28.503,78.918,1
0.157,-1.103,0.253,59.875,-31.128,80.75,1
0.146,-1.078,0.268,54.016,-34.912,81.055,1
0.129,-1.038,0.266,48.096,-38.635,80.139,1
0.127,-0.991,0.267,43.945,-41.138,79.712,1
0.121,-0.988,0.269,40.283,-43.335,78.003,1
0.139,-0.99,0.267,38.086,-44.189,77.515,1
0.151,-0.986,0.253,36.743,-45.41,76.721,1
0.151,-0.976,0.24,35.217,-46.753,75.073,1
0.146,-0.945,0.245,32.715,-48.889,73.364,1
0.14,-0.936,0.24,29.663,-50.598,70.862,1
0.139,-0.935,0.237,28.259,-50.842,68.298,1
0.148,-0.924,0.244,29.053,-49.988,66.895,1
0.151,-0.917,0.24,31.311,-49.255,65.613,1
0.15,-0.907,0.228,35.645,-48.218,64.636,1
0.151,-0.91,0.238,39.551,-46.753,64.331,1
0.167,-0.925,0.253,39.795,-45.715,64.026,1
0.173,-0.918,0.259,37.231,-44.861,63.477,1
0.178,-0.903,0.255,35.828,-43.701,62.622,1
0.187,-0.894,0.257,35.645,-42.236,61.707,1
0.191,-0.889,0.263,36.072,-40.955,61.035,1
0.203,-0.906,0.268,35.706,-40.344,60.547,1
0.2,-0.901,0.258,32.532,-40.222,58.96,1
0.206,-0.87,0.251,29.175,-38.696,57.983,1
0.22,-0.863,0.244,27.222,-37.109,56.763,1
0.233,-0.878,0.223,25.94,-36.072,55.359,1
0.237,-0.858,0.214,24.719,-35.645,53.65,1
0.234,-0.849,0.227,22.705,-35.095,51.086,1
0.246,-0.846,0.239,21.912,-33.813,48.95,1
0.25,-0.845,0.24,20.935,-32.166,46.997,1
0.254,-0.842,0.233,18.433,-31.494,44.617,1
0.25,-0.825,0.22,15.93,-30.701,41.87,1
0.256,-0.833,0.214,14.099,-29.907,39.673,1
0.263,-0.823,0.21,13.977,-28.992,37.659,1
0.264,-0.808,0.203,14.282,-28.015,34.851,1
0.266,-0.819,0.187,14.282,-27.222,32.471,1
0.272,-0.827,0.17,13.367,-26.978,30.457,1
0.274,-0.837,0.163,12.085,-26.184,28.625,1
0.285,-0.846,0.154,10.62,-25.208,27.039,1
0.292,-0.853,0.155,8.667,-24.719,25.635,1
0.294,-0.848,0.173,6.104,-24.658,23.926,1
0.3,-0.844,0.184,4.883,-24.17,22.095,1
0.297,-0.835,0.188,6.104,-23.01,20.447,1
0.298,-0.83,0.184,8.24,-21.79,18.433,1
0.31,-0.835,0.175,9.827,-20.63,16.663,1
0.318,-0.858,0.162,8.972,-19.958,15.259,1
0.332,-0.873,0.162,6.47,-19.592,13.977,1
0.35,-0.858,0.135,3.784,-19.287,12.573,1
0.356,-0.857,0.122,3.235,-19.592,10.437,1
0.352,-0.86,0.133,4.028,-20.02,8.667,1
0.351,-0.853,0.143,5.798,-19.653,7.141,1
0.348,-0.87,0.156,8.545,-19.104,5.859,1
0.353,-0.898,0.16,10.559,-18.066,4.822,1
0.354,-0.919,0.165,10.254,-17.456,4.578,1
0.355,-0.941,0.18,6.531,-17.517,4.517,1
0.353,-0.946,0.193,0.061,-18.066,3.967,1
0.357,-0.944,0.191,-7.629,-18.921,3.174,1
0.37,-0.909,0.174,-13.245,-19.47,2.441,1
0.366,-0.887,0.177,-14.709,-19.836,1.831,1
0.368,-0.892,0.185,-10.01,-19.348,1.221,1
0.367,-0.902,0.193,-2.747,-17.822,0.61,1
0.371,-0.935,0.192,4.272,-15.747,0.549,1
0.377,-0.962,0.185,9.033,-13.672,1.038,1
0.378,-0.972,0.193,9.705,-12.024,1.648,1
0.372,-0.968,0.182,7.69,-11.169,1.892,1
0.372,-0.946,0.169,4.456,-11.292,2.502,1
0.37,-0.933,0.171,0.427,-11.658,2.869,1
0.372,-0.924,0.186,-2.625,-11.841,2.93,1
0.366,-0.92,0.208,-3.662,-11.841,2.747,1
0.366,-0.933,0.207,-2.014,-11.414,2.563,1
0.369,-0.944,0.211,-0.061,-10.498,2.869,1
0.369,-0.946,0.219,0,-9.521,3.662,1
0.368,-0.941,0.231,-0.854,-8.362,4.272,1
0.366,-0.941,0.229,-1.77,-7.446,4.272,1
0.371,-0.941,0.215,-3.54,-6.714,4.211,1
0.372,-0.931,0.216,-5.615,-5.981,4.333,1
0.365,-0.914,0.227,-7.141,-5.371,4.395,1
0.365,-0.901,0.229,-7.874,-4.639,3.906,1
0.358,-0.895,0.231,-7.08,-4.028,3.113,1
0.362,-0.902,0.233,-5.554,-3.235,2.197,1
0.363,-0.907,0.236,-4.7,-2.441,1.648,1
0.362,-0.897,0.225,-4.456,-1.587,0.977,1
0.369,-0.895,0.212,-2.747,-0.549,0.916,1
0.372,-0.908,0.204,-1.77,0.427,1.038,1
0.376,-0.903,0.197,-1.16,0.977,1.343,1
0.379,-0.921,0.2,-0.061,1.587,1.404,1
0.375,-0.942,0.194,-1.038,2.258,1.526,1
0.377,-0.949,0.2,-3.723,2.319,1.831,1
0.37,-0.941,0.2,-6.409,2.136,2.014,1
0.367,-0.928,0.21,-7.935,1.831,2.441,1
0.366,-0.921,0.217,-6.592,1.953,3.052,1
0.378,-0.927,0.184,-4.028,2.319,3.662,1
0.392,-0.923,0.164,-4.089,2.686,4.089,1
0.391,-0.894,0.15,-5.31,2.319,4.395,1
0.395,-0.904,0.16,-4.822,1.648,4.395,1
0.395,-0.91,0.181,-4.333,1.038,3.723,1
0.392,-0.897,0.195,-4.944,0.244,3.052,1
0.395,-0.891,0.2,-5.31,-0.488,2.197,1
0.395,-0.882,0.198,-5.188,-0.854,1.465,1
0.393,-0.883,0.191,-4.578,-0.916,0.916,1
0.398,-0.884,0.189,-3.296,-0.366,0.488,1
0.402,-0.893,0.19,-1.465,-0.122,-0.061,1
0.406,-0.91,0.2,0.488,-0.183,-0.793,1
0.403,-0.917,0.217,1.648,-0.122,-1.465,1
-0.02,-1.614,0.176,142.151,-13.489,-34.058,1
-0.004,-1.575,0.167,114.99,-16.113,-31.738,1
-0.035,-1.62,0.209,93.018,-20.447,-21.423,1
0.021,-1.669,0.288,79.285,-24.475,-6.958,1
0.049,-1.69,0.299,64.758,-29.724,4.639,1
0.028,-1.601,0.302,45.715,-37.598,17.395,1
0.007,-1.537,0.311,28.076,-45.044,28.748,1
0.032,-1.489,0.322,14.038,-48.706,38.879,1
0.05,-1.403,0.329,7.08,-50.476,48.584,1
0.048,-1.317,0.326,7.812,-50.781,55.847,1
0.047,-1.255,0.323,11.902,-49.805,61.157,1
0.047,-1.205,0.323,16.785,-47.791,65.063,1
0.053,-1.171,0.336,20.203,-45.837,67.81,1
0.081,-1.126,0.341,22.583,-45.288,70.557,1
0.07,-1.086,0.351,26.367,-45.715,72.021,1
0.062,-1.061,0.344,32.593,-44.495,71.594,1
0.063,-1.016,0.352,40.1,-42.542,71.289,1
0.07,-1,0.348,47.18,-41.077,70.313,1
0.09,-1.019,0.341,49.622,-40.344,69.519,1
0.09,-1.011,0.334,46.448,-41.26,69.397,1
0.093,-0.979,0.344,39.49,-42.725,68.787,1
0.076,-0.942,0.351,32.959,-44.128,67.932,1
0.074,-0.921,0.359,27.588,-45.166,66.101,1
0.084,-0.907,0.366,23.682,-46.448,64.27,1
0.079,-0.902,0.355,20.081,-47.119,62.927,1
0.08,-0.891,0.33,19.531,-46.875,62.439,1
0.084,-0.875,0.324,21.667,-46.082,62.378,1
0.085,-0.877,0.306,22.888,-45.349,61.401,1
0.098,-0.87,0.299,23.132,-44.189,60.486,1
0.113,-0.871,0.308,22.034,-42.419,59.021,1
0.129,-0.875,0.317,21.301,-40.405,56.763,1
0.133,-0.871,0.331,23.01,-38.086,54.443,1
0.13,-0.894,0.322,27.527,-36.438,52.063,1
0.12,-0.907,0.316,33.081,-33.508,50.598,1
0.156,-0.925,0.308,37.842,-30.823,49.744,1
0.152,-0.909,0.291,41.809,-29.053,49.866,1
0.158,-0.905,0.29,42.603,-27.588,49.011,1
0.165,-0.897,0.291,41.87,-25.818,48.096,1
0.176,-0.89,0.285,41.016,-23.315,46.753,1
0.199,-0.912,0.285,39.734,-22.461,44.8,1
0.198,-0.919,0.293,36.316,-22.339,42.908,1
0.197,-0.925,0.298,33.02,-22.339,41.382,1
0.206,-0.924,0.286,32.41,-22.156,40.466,1
0.227,-0.938,0.261,32.043,-21.179,40.222,1
0.229,-0.944,0.232,31.128,-21.24,40.466,1
0.23,-0.936,0.211,30.151,-21.057,40.588,1
0.224,-0.941,0.199,30.334,-20.386,40.161,1
0.228,-0.95,0.188,29.053,-19.714,39.612,1
0.231,-0.931,0.181,28.442,-18.982,39.001,1
0.24,-0.93,0.182,28.259,-18.372,37.598,1
0.232,-0.94,0.168,28.87,-17.883,35.95,1
0.253,-0.959,0.165,28.748,-17.822,34.607,1
0.256,-0.958,0.164,27.527,-17.883,33.813,1
0.243,-0.948,0.157,26.367,-18.372,33.02,1
0.26,-0.935,0.155,25.879,-18.86,32.349,1
0.253,-0.923,0.148,25.269,-19.348,30.945,1
0.258,-0.916,0.144,23.621,-19.897,29.541,1
0.265,-0.942,0.135,20.935,-20.447,28.259,1
0.277,-0.962,0.142,17.456,-20.935,27.405,1
0.274,-0.978,0.145,13.794,-21.851,26.001,1
0.266,-0.968,0.146,11.047,-22.583,25.024,1
0.256,-0.967,0.146,8.545,-23.193,24.475,1
0.259,-0.951,0.143,7.08,-23.437,24.17,1
0.269,-0.933,0.15,5.005,-23.743,23.376,1
0.256,-0.904,0.14,3.845,-24.292,21.851,1
0.266,-0.896,0.14,3.235,-24.353,20.264,1
0.262,-0.892,0.149,3.174,-24.048,18.738,1
0.277,-0.901,0.132,3.906,-23.376,17.639,1
0.289,-0.9,0.114,4.578,-22.827,16.113,1
0.295,-0.893,0.108,5.859,-22.583,15.015,1
0.293,-0.893,0.109,6.226,-22.522,14.038,1
0.288,-0.896,0.123,6.531,-22.095,13.184,1
0.289,-0.898,0.14,7.507,-21.545,12.573,1
0.291,-0.908,0.15,8.484,-20.63,11.536,1
0.292,-0.911,0.152,8.118,-19.836,10.376,1
0.295,-0.903,0.145,5.92,-19.897,9.033,1
0.293,-0.907,0.139,3.662,-20.203,8.057,1
0.302,-0.9,0.112,2.563,-20.02,7.568,1
0.311,-0.896,0.096,1.16,-20.142,7.446,1
0.311,-0.891,0.102,-1.648,-20.142,7.141,1
0.321,-0.891,0.107,-2.991,-19.592,6.531,1
0.318,-0.898,0.134,-2.258,-18.494,5.798,1
0.309,-0.883,0.193,0.427,-16.724,4.944,1
0.293,-0.876,0.27,6.165,-13.123,3.357,1
0.274,-0.957,0.264,13.55,-9.094,2.258,1
0.291,-0.96,0.206,14.282,-7.324,2.197,1
0.317,-0.957,0.174,8.606,-7.751,1.587,1
0.333,-0.97,0.161,1.709,-9.46,1.526,1
0.332,-0.972,0.157,-3.784,-10.559,1.831,1
0.326,-0.951,0.158,-6.653,-10.62,2.625,1
0.326,-0.911,0.141,-4.456,-10.193,3.235,1
0.321,-0.899,0.13,0.549,-9.277,3.052,1
0.313,-0.914,0.122,5.188,-7.935,2.686,1
0.321,-0.947,0.11,7.935,-6.409,2.808,1
0.327,-0.96,0.111,7.019,-5.005,3.296,1
0.331,-0.959,0.119,4.883,-4.761,3.601,1
0.328,-0.97,0.128,2.625,-5.737,3.235,1
0.328,-0.982,0.132,0.122,-6.409,3.296,1
0.334,-0.957,0.138,-1.282,-7.019,3.601,1
0.332,-0.951,0.138,-0.305,-7.568,3.54,1
0.334,-0.951,0.138,1.526,-7.935,3.662,1
0.338,-0.963,0.122,1.648,-8.24,4.333,1
0.345,-0.97,0.111,0.488,-8.179,5.188,1
0.349,-0.953,0.12,-0.916,-8.484,5.859,1
0.339,-0.942,0.131,-1.831,-8.789,6.348,1
0.336,-0.934,0.14,-0.916,-8.667,6.714,1
0.336,-0.925,0.144,0.122,-8.179,6.592,1
0.336,-0.927,0.151,0.427,-7.874,6.531,1
0.33,-0.922,0.171,0.793,-7.324,6.042,1
0.326,-0.923,0.18,1.343,-6.592,5.371,1
0.327,-0.931,0.178,0.671,-6.165,4.517,1
0.33,-0.942,0.179,-0.427,-6.165,3.784,1
0.329,-0.95,0.188,-1.831,-6.226,2.869,1
0.329,-0.946,0.188,-2.686,-5.981,1.77,1
0.333,-0.95,0.181,-2.808,-5.676,0.793,1
0.34,-0.939,0.173,-2.747,-5.127,0.366,1
0.349,-0.946,0.171,-2.197,-4.272,-0.244,1
0.361,-0.955,0.159,-0.427,-3.113,-0.854,1
0.357,-0.957,0.157,0.61,-2.563,-0.916,1
-0.091,-1.506,0.465,96.924,-31.982,-18.616,1
-0.025,-1.423,0.477,97.717,-28.931,-13.55,1
-0.035,-1.493,0.453,98.206,-25.818,-3.296,1
0.051,-1.577,0.444,79.285,-20.447,21.729,1
0.061,-1.464,0.461,64.331,-22.461,30.64,1
0.04,-1.397,0.467,56.091,-25.024,38.208,1
0.057,-1.363,0.47,56.519,-25.818,46.57,1
0.086,-1.342,0.458,59.937,-25.696,54.016,1
0.078,-1.271,0.424,66.467,-25.574,60.852,1
0.082,-1.22,0.391,71.655,-24.902,66.772,1
0.1,-1.207,0.361,73.242,-24.597,70.801,1
0.106,-1.171,0.343,70.801,-24.963,74.219,1
0.114,-1.138,0.333,66.406,-25.94,75.562,1
0.119,-1.12,0.319,63.904,-27.527,75.562,1
0.116,-1.101,0.319,64.514,-29.053,75.745,1
0.123,-1.1,0.327,64.88,-31.372,75.623,1
0.125,-1.092,0.327,61.768,-33.997,75.134,1
0.119,-1.059,0.315,56.824,-37.17,74.951,1
0.095,-1.001,0.326,53.711,-39.673,74.219,1
0.072,-0.948,0.327,54.871,-40.894,72.998,1
0.062,-0.908,0.316,60.73,-40.283,71.167,1
0.079,-0.897,0.303,66.284,-39.49,68.481,1
0.104,-0.908,0.28,71.045,-38.94,65.796,1
0.126,-0.939,0.263,72.083,-39.49,63.599,1
0.14,-0.947,0.245,69.641,-41.382,61.523,1
0.14,-0.94,0.252,64.209,-43.457,59.937,1
0.132,-0.942,0.271,59.021,-45.227,58.289,1
0.121,-0.944,0.277,54.321,-46.326,57.312,1
0.142,-0.929,0.273,50.171,-46.509,57.556,1
0.151,-0.927,0.262,45.41,-47.485,57.312,1
0.151,-0.92,0.264,39.429,-48.34,56.58,1
0.152,-0.891,0.255,33.02,-48.279,55.786,1
0.146,-0.857,0.248,29.724,-48.279,55.054,1
0.133,-0.818,0.237,30.396,-47.058,54.016,1
0.154,-0.816,0.225,31.738,-44.922,53.284,1
0.167,-0.831,0.226,32.593,-43.518,52.307,1
0.178,-0.851,0.246,31.616,-43.03,50.232,1
0.177,-0.864,0.265,29.968,-42.236,47.852,1
0.174,-0.846,0.286,29.175,-40.955,45.654,1
0.177,-0.856,0.286,30.701,-39.246,43.518,1
0.193,-0.878,0.28,31.372,-37.048,44.556,1
0.21,-0.884,0.273,30.212,-35.461,44.983,1
0.212,-0.872,0.251,26.917,-34.363,43.152,1
0.208,-0.857,0.245,22.888,-33.691,41.016,1
0.215,-0.845,0.208,19.775,-32.959,39.856,1
0.221,-0.847,0.183,17.151,-31.921,38.696,1
0.228,-0.851,0.157,14.587,-31.128,37.537,1
0.239,-0.865,0.155,12.939,-30.396,36.011,1
0.238,-0.885,0.175,10.315,-29.968,34.18,1
0.24,-0.887,0.198,7.324,-29.175,32.776,1
0.238,-0.882,0.229,4.883,-28.259,31.006,1
0.236,-0.876,0.246,3.052,-27.405,29.175,1
0.237,-0.858,0.249,2.686,-26.245,27.588,1
0.237,-0.856,0.245,2.441,-25.085,26.001,1
0.242,-0.86,0.24,1.404,-23.865,24.597,1
0.264,-0.847,0.196,1.404,-22.583,23.132,1
0.283,-0.851,0.148,1.831,-21.667,21.423,1
0.292,-0.852,0.124,2.686,-20.874,19.775,1
0.302,-0.876,0.123,3.113,-20.386,17.822,1
0.305,-0.897,0.142,4.089,-19.714,15.991,1
0.303,-0.904,0.17,4.578,-18.555,14.221,1
0.298,-0.921,0.194,4.272,-17.822,13.184,1
0.297,-0.931,0.215,2.686,-16.541,12.817,1
0.299,-0.918,0.234,0.488,-15.137,12.451,1
0.3,-0.912,0.25,-1.77,-13.855,11.841,1
0.301,-0.901,0.264,-2.136,-12.329,11.047,1
0.308,-0.889,0.24,0,-10.681,9.766,1
0.315,-0.89,0.207,2.686,-9.644,7.996,1
0.326,-0.913,0.168,4.761,-9.033,6.897,1
0.343,-0.937,0.144,4.333,-8.789,6.348,1
0.354,-0.949,0.141,0.854,-8.728,6.714,1
0.351,-0.952,0.145,-1.831,-8.484,7.263,1
0.343,-0.953,0.157,-3.784,-8.423,7.141,1
0.328,-0.942,0.18,-4.822,-8.728,7.019,1
0.321,-0.935,0.188,-4.456,-8.362,7.141,1
0.328,-0.936,0.168,-3.174,-7.751,7.141,1
0.339,-0.932,0.153,-1.709,-7.202,7.324,1
0.342,-0.919,0.153,-0.977,-7.324,7.141,1
0.345,-0.915,0.16,-0.122,-7.629,6.47,1
0.346,-0.909,0.163,2.258,-7.446,5.859,1
0.346,-0.928,0.159,3.723,-6.958,5.188,1
0.35,-0.94,0.16,2.991,-6.348,4.761,1
0.346,-0.927,0.189,0.061,-6.348,4.639,1
0.331,-0.919,0.211,-2.38,-6.592,3.845,1
0.327,-0.936,0.218,-3.296,-6.592,2.991,1
0.332,-0.943,0.222,-3.967,-6.104,3.479,1
0.339,-0.93,0.213,-3.296,-5.249,4.272,1
0.344,-0.928,0.209,-3.052,-4.578,4.211,1
0.351,-0.927,0.211,-3.174,-3.723,4.089,1
0.352,-0.919,0.213,-2.38,-3.052,3.906,1
0.352,-0.918,0.204,-1.77,-2.075,3.723,1
0.356,-0.923,0.194,-1.953,-1.404,3.235,1
0.361,-0.927,0.191,-3.113,-1.099,3.235,1
0.362,-0.932,0.197,-5.005,-1.099,3.357,1
0.36,-0.922,0.199,-6.348,-1.099,3.357,1
0.358,-0.907,0.203,-5.859,-1.038,3.235,1
0.362,-0.905,0.199,-4.211,-0.671,3.052,1
0.365,-0.909,0.205,-3.113,-0.183,2.747,1
0.37,-0.927,0.205,-2.502,0.305,2.075,1
0.373,-0.929,0.192,-1.099,0.977,1.221,1
0.371,-0.931,0.185,-0.732,1.099,0.793,1
0.373,-0.938,0.181,-1.892,0.854,0.549,1
0.371,-0.933,0.187,-3.113,0.854,0.305,1
0.369,-0.931,0.194,-3.113,1.099,0.366,1
0.369,-0.936,0.201,-2.869,1.16,0.549,1
0.374,-0.938,0.2,-4.211,1.038,0.671,1
0.375,-0.932,0.209,-5.127,0.854,0.732,1
0.373,-0.93,0.212,-3.906,0.977,0.61,1
0.374,-0.928,0.201,-2.258,1.221,0.427,1
0.369,-0.931,0.193,-1.587,1.709,0.366,1
0.369,-0.926,0.182,-2.136,1.526,0.122,1
0.367,-0.927,0.169,-1.343,1.099,0,1
0.364,-0.931,0.154,-0.122,1.038,0.427,1
0.367,-0.924,0.144,0.61,0.732,0.732,1
0.361,-0.925,0.158,-0.244,0.366,0.854,1
0.362,-0.926,0.178,-1.282,0.183,0.854,1
0.362,-0.937,0.191,-0.793,0.427,0.366,1
0.36,-0.939,0.197,-0.061,0.244,0.244,1
0.363,-0.945,0.197,-0.122,-0.244,0.061,1
-0.008,-0.569,1.532,-78.979,-10.925,27.283,2
-0.01,-0.607,1.543,-89.233,-4.822,36.377,2
-0.004,-0.568,1.538,-99.915,1.77,44.556,2
-0.01,-0.506,1.547,-108.826,7.507,48.34,2
-0.042,-0.438,1.539,-110.962,15.625,51.147,2
-0.065,-0.371,1.472,-106.384,26.184,54.016,2
-0.084,-0.349,1.386,-96.741,36.621,57.007,2
-0.094,-0.315,1.286,-85.144,48.401,61.035,2
-0.098,-0.255,1.163,-72.083,59.631,65.186,2
-0.082,-0.228,1.042,-61.462,68.848,69.58,2
-0.055,-0.242,0.988,-55.908,76.416,73.669,2
-0.028,-0.258,0.945,-52.185,83.13,78.552,2
0.008,-0.25,0.916,-51.147,87.708,82.886,2
0.041,-0.245,0.918,-54.321,89.844,85.205,2
0.062,-0.238,0.887,-59.753,89.355,85.876,2
0.076,-0.21,0.841,-65.491,86.426,86.365,2
0.083,-0.158,0.789,-70.557,81.604,87.646,2
0.089,-0.099,0.74,-76.599,75.684,88.989,2
0.063,-0.016,0.692,-83.374,68.726,88.623,2
0.045,0.068,0.68,-88.318,62.134,87.341,2
0.047,0.127,0.672,-89.478,55.725,85.876,2
0.034,0.165,0.664,-84.045,49.011,85.51,2
0.032,0.168,0.678,-76.66,42.969,85.754,2
0.04,0.172,0.692,-70.007,39.612,85.632,2
0.067,0.186,0.703,-64.331,37.964,84.229,2
0.07,0.221,0.706,-60.791,36.499,82.275,2
0.056,0.264,0.703,-58.899,34.485,79.407,2
0.059,0.312,0.678,-57.678,31.982,76.294,2
0.062,0.341,0.662,-57.922,29.541,73.059,2
0.056,0.38,0.646,-58.167,26.978,69.031,2
0.038,0.426,0.656,-56.824,23.132,63.232,2
0.069,0.424,0.635,-50.537,21.301,61.89,2
0.091,0.403,0.64,-46.509,18.25,59.265,2
0.084,0.412,0.65,-45.41,14.16,55.481,2
0.095,0.417,0.664,-42.603,11.047,52.124,2
0.091,0.4,0.687,-40.222,8.911,48.523,2
0.1,0.408,0.694,-38.33,7.08,44.861,2
0.118,0.422,0.715,-36.743,3.906,41.321,2
0.109,0.428,0.728,-33.936,0.977,37.292,2
0.098,0.437,0.727,-29.114,-0.122,33.386,2
0.097,0.458,0.703,-23.865,0.366,29.419,2
0.125,0.428,0.707,-19.226,0.793,26.672,2
0.14,0.384,0.704,-15.625,0.549,25.269,2
0.134,0.37,0.703,-14.832,-2.014,22.522,2
0.136,0.387,0.704,-18.25,-4.578,19.775,2
0.131,0.452,0.703,-20.874,-7.568,18.005,2
0.122,0.481,0.72,-20.63,-11.047,14.832,2
0.1,0.474,0.747,-17.639,-12.817,11.536,2
0.1,0.465,0.765,-11.475,-11.78,8.789,2
0.122,0.452,0.79,-5.676,-10.315,6.47,2
0.12,0.434,0.802,-0.61,-9.949,2.991,2
0.132,0.365,0.808,2.93,-9.888,0.549,2
0.156,0.324,0.794,4.395,-9.399,0.793,2
0.167,0.305,0.825,4.089,-10.01,1.404,2
0.158,0.266,0.872,2.441,-10.071,2.319,2
0.161,0.28,0.906,2.502,-8.484,4.456,2
0.174,0.276,0.96,3.174,-6.104,5.981,2
0.181,0.267,1.006,3.967,-2.747,7.629,2
0.19,0.271,1.035,4.456,0.427,8.667,2
0.197,0.291,1.045,4.944,3.113,9.399,2
0.197,0.272,1.043,4.761,5.737,10.071,2
0.229,0.189,1.023,-0.793,8.179,11.292,2
0.254,0.219,1.006,-9.949,8.667,13.855,2
0.227,0.302,1.003,-16.235,7.019,15.015,2
0.187,0.34,0.99,-16.113,5.981,14.038,2
0.171,0.365,0.937,-11.292,6.531,13.062,2
0.157,0.448,0.881,-3.845,7.263,12.512,2
0.128,0.482,0.861,3.418,7.69,12.146,2
0.116,0.468,0.862,9.399,8.545,11.963,2
0.127,0.411,0.89,13.672,10.559,11.78,2
0.146,0.347,0.937,13.123,12.573,12.451,2
0.172,0.313,0.967,8.301,13.489,14.648,2
0.173,0.296,0.975,1.465,11.658,15.808,2
0.157,0.339,0.932,-6.592,6.897,15.381,2
0.138,0.377,0.88,-15.93,0.549,13.489,2
0.145,0.4,0.889,-17.639,-3.052,12.634,2
0.149,0.39,0.902,-11.719,-3.113,12.146,2
0.136,0.344,0.902,-3.54,-2.441,10.742,2
0.136,0.342,0.87,1.282,-2.319,9.888,2
0.136,0.341,0.875,1.892,-3.723,8.606,2
0.119,0.326,0.907,0.488,-5.066,7.446,2
0.119,0.302,0.933,-0.671,-4.15,7.08,2
0.13,0.281,0.95,-1.404,-2.197,7.568,2
0.13,0.284,0.963,-2.014,-1.221,8.362,2
0.119,0.302,0.974,-2.808,-1.099,8.362,2
0.114,0.322,0.971,-3.54,-0.916,7.935,2
0.119,0.343,0.954,-3.418,-0.305,7.263,2
0.126,0.354,0.925,-2.93,0,5.981,2
0.118,0.398,0.904,-0.916,-0.61,3.967,2
0.107,0.393,0.905,2.258,-0.488,1.526,2
0.115,0.34,0.915,2.563,0.549,-0.305,2
0.133,0.318,0.916,-0.488,1.892,0.183,2
0.145,0.324,0.899,-4.822,2.014,1.221,2
0.146,0.356,0.887,-8.484,0.305,1.16,2
0.147,0.358,0.888,-8.423,-0.671,0.854,2
0.158,0.338,0.89,-5.798,-0.122,0.732,2
0.169,0.338,0.892,-3.906,-0.183,0.854,2
0.176,0.338,0.9,-3.54,-1.16,0.977,2
0.179,0.338,0.894,-2.563,-2.136,0.549,2
0.17,0.339,0.895,-1.343,-3.662,0,2
0.155,0.323,0.904,-1.221,-3.54,0.488,2
0.148,0.329,0.917,-1.587,-2.625,1.221,2
0.147,0.341,0.925,-2.075,-1.953,2.136,2
0.145,0.341,0.926,-0.854,-1.221,1.953,2
0.142,0.338,0.903,2.197,-0.732,1.221,2
0.14,0.332,0.898,4.15,-0.122,1.038,2
0.146,0.326,0.911,4.028,0.427,1.221,2
0.147,0.321,0.921,2.686,0.305,1.16,2
0.144,0.339,0.919,1.343,-0.244,1.038,2
0.144,0.335,0.918,0.549,-0.427,0.916,2
0.15,0.324,0.919,0,-0.122,1.16,2
0.151,0.331,0.918,-0.793,0.305,1.465,2
0.147,0.339,0.916,-1.465,0.671,1.221,2
0.148,0.342,0.908,-1.221,0.488,0.61,2
0.143,0.353,0.903,-1.16,0.061,-0.183,2
0.143,0.351,0.904,-1.953,0.183,-0.488,2
0.147,0.344,0.901,-2.686,0.61,-0.488,2
0.156,0.342,0.901,-3.54,0.793,-0.366,2
0.155,0.347,0.896,-2.563,0.61,-0.183,2
0.103,-0.524,1.514,44.312,40.955,28.992,2
0.141,-0.546,1.495,41.565,56.152,33.997,2
0.175,-0.56,1.467,31.494,66.223,38.513,2
0.209,-0.613,1.422,17.029,71.106,43.762,2
0.229,-0.657,1.361,-1.587,70.801,49.805,2
0.249,-0.633,1.279,-22.827,66.589,57.129,2
0.239,-0.577,1.215,-45.41,59.509,64.392,2
0.237,-0.535,1.172,-66.956,52.307,73.73,2
0.236,-0.494,1.122,-87.524,43.945,79.712,2
0.214,-0.41,1.071,-106.384,36.072,82.886,2
0.197,-0.32,1.019,-121.155,30.151,83.679,2
0.171,-0.232,0.973,-130.676,26.489,84.778,2
0.148,-0.166,0.945,-135.498,24.841,85.999,2
0.147,-0.131,0.909,-135.742,25.146,87.402,2
0.154,-0.114,0.862,-132.019,25.269,88.562,2
0.143,-0.073,0.827,-128.052,24.353,88.867,2
0.142,-0.019,0.802,-124.878,23.743,88.135,2
0.151,0.006,0.783,-120.728,23.01,86.914,2
0.154,0.007,0.754,-116.089,22.766,85.815,2
0.155,0.045,0.726,-110.168,22.095,85.693,2
0.155,0.112,0.696,-104.736,19.714,84.167,2
0.149,0.18,0.662,-98.999,16.541,81.604,2
0.129,0.185,0.658,-93.079,12.756,79.712,2
0.115,0.17,0.661,-88.379,10.742,80.2,2
0.116,0.181,0.691,-83.557,10.01,80.566,2
0.123,0.202,0.721,-79.102,10.193,79.956,2
0.118,0.218,0.727,-72.021,11.108,77.82,2
0.119,0.219,0.738,-65.002,12.329,75.562,2
0.128,0.226,0.712,-58.716,13.855,75.745,2
0.146,0.21,0.696,-51.453,14.282,75.684,2
0.146,0.184,0.688,-47.974,13.977,74.951,2
0.141,0.207,0.677,-45.898,12.573,73.73,2
0.143,0.232,0.688,-45.288,10.437,71.777,2
0.145,0.247,0.7,-45.532,8.911,70.251,2
0.134,0.255,0.72,-46.631,7.996,68.787,2
0.116,0.281,0.745,-48.157,7.751,67.322,2
0.108,0.313,0.767,-48.95,8.667,65.674,2
0.106,0.321,0.778,-47.485,10.742,64.026,2
0.118,0.325,0.777,-46.021,13.672,62.073,2
0.138,0.336,0.771,-44.006,16.174,59.998,2
0.143,0.358,0.763,-41.931,17.517,56.641,2
0.134,0.389,0.753,-38.757,18.127,53.589,2
0.134,0.417,0.741,-35.461,18.127,51.147,2
0.142,0.426,0.739,-32.227,17.639,49.194,2
0.149,0.43,0.724,-29.114,15.991,48.218,2
0.143,0.443,0.701,-26.611,13.916,45.776,2
0.124,0.509,0.657,-21.79,11.658,42.664,2
0.105,0.535,0.652,-15.625,9.888,39.917,2
0.111,0.499,0.686,-12.207,10.193,38.452,2
0.133,0.447,0.717,-9.766,11.475,37.659,2
0.15,0.422,0.767,-9.888,11.719,36.621,2
0.138,0.446,0.809,-11.23,11.047,35.583,2
0.121,0.471,0.847,-12.146,9.216,32.959,2
0.088,0.496,0.87,-13.245,7.385,28.87,2
0.058,0.53,0.859,-13.428,6.165,24.109,2
0.056,0.56,0.836,-13.367,5.493,19.592,2
0.061,0.602,0.796,-10.071,4.578,14.587,2
0.06,0.617,0.764,-4.761,3.052,9.338,2
0.067,0.621,0.742,1.953,2.319,5.249,2
0.093,0.567,0.75,8.85,2.686,1.709,2
0.121,0.475,0.793,12.817,3.418,-0.671,2
0.159,0.403,0.84,12.085,3.479,-2.014,2
0.181,0.388,0.873,7.263,1.831,-2.625,2
0.189,0.376,0.891,2.075,-0.549,-3.113,2
0.193,0.368,0.896,-2.93,-2.563,-2.991,2
0.192,0.379,0.88,-6.409,-3.784,-2.686,2
0.203,0.37,0.873,-8.301,-4.272,-2.258,2
0.206,0.363,0.88,-8.972,-3.967,-1.465,2
0.209,0.364,0.885,-9.094,-2.93,-0.671,2
0.209,0.37,0.884,-8.057,-2.686,-0.122,2
0.202,0.373,0.883,-6.592,-2.563,0.366,2
0.202,0.382,0.888,-5.554,-1.343,0.61,2
0.205,0.396,0.888,-4.517,-0.549,1.038,2
0.19,0.4,0.893,-3.235,-0.305,1.221,2
0.184,0.412,0.898,-2.014,0.488,1.648,2
0.191,0.422,0.891,-0.61,1.892,1.77,2
0.191,0.432,0.874,1.16,2.808,1.465,2
0.191,0.459,0.852,3.052,2.686,1.526,2
0.184,0.444,0.854,5.615,2.319,1.282,2
0.188,0.415,0.866,6.897,2.625,1.16,2
0.192,0.411,0.881,7.324,2.747,1.404,2
0.195,0.415,0.888,6.714,2.93,1.77,2
0.196,0.416,0.883,6.836,2.991,1.953,2
0.197,0.406,0.883,5.676,2.686,1.648,2
0.202,0.406,0.887,2.808,2.014,1.831,2
0.208,0.401,0.895,-0.305,1.099,1.953,2
0.205,0.409,0.895,-2.747,0.366,2.136,2
0.2,0.432,0.885,-3.662,-0.671,2.38,2
0.191,0.443,0.866,-3.113,-1.343,2.38,2
0.183,0.441,0.849,-1.709,-1.709,2.319,2
0.184,0.431,0.859,-1.526,-1.587,2.136,2
0.185,0.421,0.882,-1.648,-1.16,1.892,2
0.184,0.417,0.898,-1.526,-0.671,1.587,2
0.191,0.414,0.889,-0.549,-0.427,1.282,2
0.198,0.412,0.874,0.244,-0.305,0.732,2
0.199,0.41,0.864,0.305,-0.366,0.305,2
0.201,0.404,0.868,-0.183,-0.671,0.061,2
0.197,0.399,0.873,-0.671,-0.854,0.061,2
0.194,0.404,0.865,-0.488,-0.549,0.305,2
0.191,0.41,0.858,-0.122,-0.061,0.366,2
0.197,0.403,0.848,0.793,0.549,0.061,2
0.19,0.404,0.841,1.892,0.366,0,2
0.184,0.4,0.842,1.953,0.061,0,2
0.189,0.392,0.855,0.916,0.305,0.122,2
0.189,0.385,0.863,0.305,0.671,0.366,2
0.191,0.388,0.872,0.366,1.16,1.038,2
0.197,0.396,0.877,0.732,1.831,1.465,2
0.199,0.392,0.879,1.282,2.197,1.038,2
0.199,0.384,0.874,1.099,2.258,0.488,2
0.197,0.391,0.866,0.671,1.892,0.183,2
0.196,0.401,0.857,-0.244,1.953,0.061,2
0.199,0.404,0.851,-0.549,2.014,-0.305,2
0.201,0.411,0.845,-0.732,1.831,-0.305,2
0.2,0.417,0.844,-0.854,1.465,-0.122,2
0.193,0.432,0.852,0.183,1.526,-0.061,2
0.189,0.434,0.862,1.526,1.587,-0.244,2
0.201,0.416,0.879,2.563,2.502,-0.183,2
0.209,0.405,0.891,3.174,3.235,-0.122,2
0.215,0.413,0.898,2.808,3.357,-0.122,2
0.137,-0.64,1.594,-58.655,4.272,19.287,2
0.105,-0.6,1.729,-79.346,3.906,26.855,2
0.07,-0.511,1.832,-91.064,8.972,32.227,2
0.065,-0.515,1.88,-91.858,40.039,47.791,2
0.116,-0.539,1.841,-84.656,58.899,57.556,2
0.131,-0.523,1.768,-76.111,77.637,63.965,2
0.13,-0.517,1.696,-70.557,94.91,68.909,2
0.143,-0.538,1.58,-69.214,110.779,74.524,2
0.144,-0.518,1.45,-74.402,121.948,78.491,2
0.13,-0.429,1.292,-83.984,128.052,82.764,2
0.098,-0.321,1.147,-93.506,130.737,88.44,2
0.083,-0.22,1.01,-99.304,130.981,94.421,2
0.079,-0.129,0.884,-100.708,128.479,100.586,2
0.076,-0.07,0.767,-99.792,122.864,105.286,2
0.075,-0.021,0.674,-98.755,115.295,108.643,2
0.068,0.044,0.584,-97.046,106.14,110.352,2
0.05,0.107,0.537,-94.543,95.703,110.168,2
0.036,0.117,0.52,-93.75,86.304,108.582,2
0.033,0.126,0.507,-96.497,78.186,106.628,2
0.041,0.173,0.494,-98.755,70.374,104.065,2
0.037,0.196,0.479,-101.013,62.012,99.609,2
0.013,0.253,0.469,-104.492,54.26,95.215,2
0.001,0.333,0.461,-106.079,47.18,92.224,2
-0.005,0.365,0.459,-104.187,41.321,89.355,2
-0.016,0.394,0.451,-98.633,36.865,86.304,2
-0.017,0.43,0.458,-91.125,32.959,82.397,2
-0.026,0.455,0.458,-80.994,29.785,76.965,2
-0.022,0.496,0.452,-67.749,27.466,71.228,2
0.003,0.506,0.444,-55.298,26.184,65.491,2
0.041,0.475,0.438,-45.41,24.658,59.448,2
0.077,0.448,0.453,-39.368,21.24,53.589,2
0.087,0.47,0.478,-34.973,17.395,49.133,2
0.092,0.495,0.518,-31.677,13.794,43.823,2
0.12,0.502,0.579,-29.297,11.169,39.795,2
0.151,0.495,0.608,-24.475,8.057,38.513,2
0.16,0.498,0.626,-17.456,6.409,35.828,2
0.194,0.472,0.646,-12.451,6.042,32.41,2
0.223,0.433,0.676,-9.766,5.676,30.273,2
0.242,0.413,0.714,-10.315,4.272,28.076,2
0.268,0.395,0.753,-15.991,2.502,27.039,2
0.276,0.41,0.775,-24.17,-0.488,26.184,2
0.274,0.44,0.784,-31.189,-3.662,25.33,2
0.283,0.427,0.782,-36.316,-5.249,24.841,2
0.288,0.434,0.759,-37.415,-5.31,25.33,2
0.3,0.448,0.744,-36.499,-5.005,25.33,2
0.304,0.461,0.737,-34.058,-4.15,25.024,2
0.291,0.498,0.741,-30.273,-3.662,24.109,2
0.27,0.531,0.765,-26.123,-3.235,22.034,2
0.248,0.543,0.791,-21.79,-1.77,20.02,2
0.229,0.534,0.803,-17.029,0.793,18.433,2
0.211,0.545,0.806,-12.939,3.601,17.334,2
0.204,0.535,0.815,-9.521,6.348,16.357,2
0.201,0.51,0.805,-6.165,8.972,15.076,2
0.231,0.507,0.799,-3.479,10.864,13.916,2
0.241,0.495,0.819,-2.014,11.047,13.062,2
0.234,0.513,0.833,-2.93,10.071,12.268,2
0.223,0.559,0.847,-4.822,8.545,11.23,2
0.213,0.575,0.852,-5.92,7.385,9.521,2
0.222,0.561,0.843,-5.554,7.019,7.385,2
0.24,0.544,0.828,-4.639,6.775,6.165,2
0.219,0.565,0.825,-2.625,6.348,4.883,2
0.207,0.531,0.826,-0.061,6.592,2.441,2
0.228,0.483,0.817,-1.16,7.507,1.221,2
0.248,0.479,0.794,-4.883,6.47,1.587,2
0.25,0.481,0.781,-8.057,3.967,1.77,2
0.248,0.473,0.778,-9.46,1.648,1.831,2
0.239,0.469,0.784,-10.193,0,2.136,2
0.231,0.47,0.791,-10.376,-1.16,2.319,2
0.226,0.469,0.797,-8.423,-1.465,2.502,2
0.226,0.456,0.792,-5.859,-1.404,2.563,2
0.227,0.448,0.794,-4.578,-1.099,2.747,2
0.237,0.44,0.783,-5.981,-1.282,2.686,2
0.24,0.465,0.776,-7.202,-2.563,3.357,2
0.235,0.49,0.758,-6.836,-3.54,3.479,2
0.225,0.508,0.748,-4.822,-4.15,2.93,2
0.218,0.508,0.741,-2.686,-4.333,2.563,2
0.223,0.498,0.739,-1.343,-4.15,2.808,2
0.227,0.496,0.748,-0.977,-3.967,2.93,2
0.229,0.501,0.752,-1.16,-4.272,2.563,2
0.229,0.5,0.755,-0.977,-4.761,1.953,2
0.22,0.503,0.743,-0.793,-5.005,1.648,2
0.208,0.521,0.744,-1.587,-5.127,1.221,2
0.212,0.542,0.764,-2.014,-4.089,0.916,2
0.242,0.48,0.78,-1.099,-1.831,0.671,2
0.254,0.448,0.777,-1.953,0.183,0.732,2
0.25,0.477,0.786,-5.493,0.732,1.282,2
0.246,0.487,0.792,-9.46,0.977,1.831,2
0.241,0.492,0.803,-13.123,1.404,2.075,2
0.235,0.533,0.815,-15.625,1.77,2.136,2
0.229,0.56,0.824,-15.564,2.747,1.77,2
0.219,0.562,0.824,-13.306,4.272,0.732,2
0.225,0.568,0.816,-10.681,6.104,-0.366,2
0.233,0.563,0.806,-7.446,7.629,-1.587,2
0.249,0.542,0.784,-4.028,9.033,-2.563,2
0.267,0.527,0.757,-1.526,9.338,-3.174,2
0.271,0.514,0.727,-0.977,8.789,-3.54,2
0.265,0.506,0.719,-1.526,7.324,-3.601,2
0.252,0.495,0.734,-3.906,5.737,-3.296,2
0.247,0.489,0.747,-5.92,4.517,-2.747,2
0.244,0.499,0.753,-6.47,3.906,-2.686,2
0.243,0.497,0.751,-5.615,3.723,-3.235,2
0.245,0.482,0.754,-4.578,3.479,-3.967,2
0.253,0.48,0.771,-4.028,3.784,-4.333,2
0.252,0.488,0.791,-3.54,4.333,-4.822,2
0.253,0.491,0.809,-2.991,5.005,-5.127,2
0.255,0.487,0.808,-1.831,5.737,-5.493,2
0.252,0.477,0.817,-1.404,5.615,-6.348,2
0.25,0.473,0.83,-2.625,5.798,-6.47,2
0.257,0.48,0.839,-4.272,6.165,-6.226,2
0.268,0.492,0.84,-5.371,5.92,-6.226,2
0.276,0.515,0.828,-4.944,5.005,-6.531,2
0.279,0.523,0.814,-3.418,4.333,-6.226,2
0.276,0.522,0.805,-1.77,3.723,-5.737,2
0.275,0.539,0.81,-1.221,2.808,-5.737,2
0.271,0.546,0.818,-1.221,2.136,-5.554,2
0.283,0.538,0.825,-1.282,1.587,-5.066,2
0.288,0.544,0.83,-1.892,0.854,-4.517,2
0.29,0.56,0.834,-2.625,0,-4.211,2
0.286,0.549,0.832,-2.258,-0.854,-3.662,2
0.223,-0.389,1.463,-21.423,6.531,20.874,2
0.236,-0.383,1.491,-31.555,12.268,24.414,2
0.246,-0.361,1.504,-41.87,18.005,28.748,2
0.26,-0.344,1.492,-50.049,23.071,33.203,2
0.249,-0.314,1.455,-62.378,31.616,41.382,2
0.245,-0.25,1.373,-65.735,36.438,45.288,2
0.24,-0.217,1.341,-68.909,41.199,48.401,2
0.24,-0.199,1.306,-72.632,46.265,50.11,2
0.247,-0.151,1.264,-74.707,51.88,54.382,2
0.259,-0.145,1.231,-77.759,55.237,56.702,2
0.269,-0.124,1.196,-82.825,57.129,57.251,2
0.279,-0.126,1.169,-88.806,57.129,56.885,2
0.264,-0.106,1.128,-94.543,56.396,57.556,2
0.257,-0.088,1.083,-98.511,55.481,59.448,2
0.248,-0.082,1.028,-101.013,54.138,61.523,2
0.235,-0.057,0.984,-101.44,52.307,64.026,2
0.231,-0.036,0.955,-100.464,50.72,66.223,2
0.231,-0.015,0.919,-97.534,50.11,68.604,2
0.229,0.011,0.886,-93.384,49.805,70.251,2
0.228,0.045,0.852,-90.027,49.133,70.74,2
0.225,0.068,0.826,-88.074,48.096,71.106,2
0.226,0.079,0.806,-86.914,47.18,71.533,2
0.233,0.076,0.786,-86.548,46.631,72.815,2
0.233,0.066,0.766,-86.548,45.532,74.951,2
0.223,0.087,0.733,-86.731,43.152,77.393,2
0.212,0.12,0.711,-86.975,40.527,79.285,2
0.206,0.154,0.694,-88.623,37.964,80.322,2
0.201,0.169,0.665,-90.149,35.339,80.75,2
0.202,0.177,0.639,-91.003,32.166,81.665,2
0.204,0.191,0.611,-92.163,28.687,82.153,2
0.192,0.181,0.588,-91.98,24.536,81.787,2
0.167,0.209,0.578,-91.919,20.447,81.543,2
0.149,0.263,0.57,-90.515,17.151,80.811,2
0.132,0.304,0.558,-86.182,15.869,79.712,2
0.137,0.331,0.551,-79.346,15.625,79.285,2
0.138,0.354,0.556,-72.144,16.968,72.449,2
0.146,0.382,0.573,-63.232,19.592,64.209,2
0.146,0.38,0.57,-54.871,21.484,61.89,2
0.126,0.379,0.57,-49.133,22.156,58.289,2
0.101,0.408,0.576,-46.021,23.132,58.777,2
0.113,0.432,0.577,-43.396,25.635,63.66,2
0.168,0.428,0.566,-39.063,26.794,69.031,2
0.175,0.418,0.566,-36.194,22.766,70.557,2
0.149,0.45,0.573,-38.94,17.517,66.65,2
0.131,0.5,0.581,-42.542,13.062,62.622,2
0.134,0.542,0.583,-45.41,11.169,59.204,2
0.133,0.571,0.585,-46.753,9.766,55.786,2
0.127,0.59,0.575,-48.035,9.033,52.307,2
0.122,0.62,0.571,-47.852,8.484,48.34,2
0.139,0.632,0.587,-47.485,8.972,44.25,2
0.147,0.648,0.6,-45.288,9.949,40.649,2
0.15,0.651,0.628,-42.175,10.681,36.865,2
0.164,0.666,0.657,-37.72,11.719,33.325,2
0.16,0.672,0.675,-30.09,12.634,29.785,2
0.166,0.661,0.682,-22.461,14.038,26.611,2
0.18,0.653,0.68,-15.503,15.564,23.682,2
0.184,0.629,0.682,-10.132,16.113,21.362,2
0.192,0.626,0.669,-7.019,17.09,19.409,2
0.207,0.633,0.654,-5.676,17.578,17.639,2
0.218,0.621,0.651,-6.714,16.479,16.418,2
0.224,0.621,0.646,-9.827,14.16,15.686,2
0.217,0.619,0.665,-13.489,11.414,14.648,2
0.221,0.612,0.639,-18.677,8.789,13.672,2
0.209,0.686,0.584,-25.635,3.113,12.878,2
0.154,0.765,0.583,-31.616,-5.005,9.216,2
0.142,0.783,0.605,-30.273,-8.118,6.226,2
0.163,0.754,0.651,-23.743,-6.226,4.578,2
0.191,0.714,0.683,-15.625,-3.906,3.052,2
0.218,0.682,0.698,-9.583,-2.747,1.465,2
0.241,0.655,0.724,-7.202,-2.38,0.488,2
0.258,0.614,0.738,-6.897,-2.93,0.122,2
0.273,0.589,0.752,-8.301,-3.54,0.549,2
0.28,0.599,0.762,-9.338,-3.845,1.526,2
0.277,0.617,0.757,-8.545,-3.906,2.014,2
0.271,0.632,0.744,-6.104,-4.211,2.014,2
0.26,0.633,0.731,-2.686,-3.479,2.075,2
0.266,0.625,0.721,0.854,-1.953,2.502,2
0.257,0.625,0.72,2.808,-0.793,2.747,2
0.252,0.619,0.721,3.235,0.244,3.54,2
0.255,0.607,0.724,2.686,1.16,4.639,2
0.251,0.6,0.728,1.953,2.075,5.31,2
0.245,0.592,0.744,0.366,2.441,5.92,2
0.245,0.591,0.716,-1.465,2.747,6.714,2
0.224,0.639,0.673,-4.15,1.404,7.019,2
0.209,0.671,0.65,-5.371,-0.854,6.226,2
0.197,0.653,0.66,-3.723,-2.014,5.127,2
0.189,0.654,0.669,-2.014,-2.136,4.333,2
0.178,0.675,0.668,-0.244,-2.441,3.174,2
0.18,0.665,0.672,1.587,-2.38,1.709,2
0.184,0.62,0.687,2.502,-1.892,0.977,2
0.197,0.602,0.696,1.831,-1.282,0.549,2
0.209,0.602,0.709,0.732,-1.282,0.061,2
0.217,0.598,0.723,-0.549,-1.648,-0.183,2
0.224,0.595,0.729,-1.038,-2.075,-0.549,2
0.227,0.599,0.732,-1.343,-2.136,-0.793,2
0.225,0.602,0.74,-1.404,-1.77,-1.038,2
0.227,0.6,0.747,-1.099,-0.977,-1.16,2
0.232,0.613,0.739,-0.916,0,-1.343,2
0.231,0.614,0.725,-0.183,0.549,-1.587,2
0.238,0.608,0.72,0.122,1.16,-1.892,2
0.242,0.622,0.719,-0.427,1.282,-1.831,2
0.242,0.626,0.723,-0.977,1.038,-1.77,2
0.243,0.626,0.727,-2.014,0.732,-1.404,2
0.245,0.62,0.733,-2.38,0.732,-0.977,2
0.243,0.611,0.725,-2.197,1.16,-0.488,2
0.249,0.621,0.722,-1.953,1.221,0.122,2
0.258,0.622,0.725,-2.136,1.587,0.488,2
0.253,0.616,0.718,-2.258,1.282,1.099,2
0.253,0.618,0.707,-2.686,0.854,1.77,2
0.243,0.624,0.701,-2.563,-0.122,2.197,2
0.235,0.627,0.701,-1.831,-0.732,2.686,2
0.234,0.63,0.703,-0.122,-0.61,2.991,2
0.228,0.64,0.692,1.648,-0.183,2.747,2
0.221,0.632,0.681,3.235,-0.732,2.258,2
0.217,0.626,0.702,2.747,-1.099,2.258,2
0.21,0.635,0.726,1.16,-0.977,2.319,2
0.204,0.635,0.742,-0.427,-1.343,1.831,2
0.2,0.645,0.743,-1.038,-1.282,1.587,2
0.203,0.658,0.738,-0.732,-0.977,1.038,2
0.21,-0.323,1.559,-39.795,13.245,22.644,2
0.22,-0.351,1.55,-44.861,20.813,30.762,2
0.213,-0.333,1.517,-50.354,27.405,37.415,2
0.202,-0.309,1.478,-56.091,34.607,41.565,2
0.179,-0.261,1.423,-61.096,42.419,44.617,2
0.188,-0.253,1.359,-65.002,49.683,46.265,2
0.184,-0.225,1.294,-68.726,55.481,46.692,2
0.167,-0.191,1.238,-70.679,61.584,50.293,2
0.178,-0.173,1.175,-71.655,66.833,53.345,2
0.18,-0.173,1.123,-73.73,68.909,53.955,2
0.153,-0.117,1.07,-78.186,69.153,52.612,2
0.133,-0.071,1.02,-80.75,70.068,56.458,2
0.132,-0.079,0.99,-83.13,72.388,60.73,2
0.156,-0.087,0.956,-84.9,74.524,66.223,2
0.168,-0.077,0.924,-85.754,74.402,70.313,2
0.158,-0.044,0.885,-87.585,72.876,72.876,2
0.163,-0.003,0.852,-89.539,70.557,73.486,2
0.161,0.016,0.826,-90.576,67.261,73.303,2
0.156,0.031,0.803,-90.332,64.819,73.547,2
0.16,0.071,0.773,-89.539,63.721,73.853,2
0.175,0.115,0.757,-88.684,62.866,74.402,2
0.187,0.147,0.747,-87.952,61.89,74.768,2
0.197,0.176,0.732,-87.341,60.303,75.562,2
0.21,0.208,0.71,-86.182,58.044,76.538,2
0.212,0.241,0.69,-85.083,54.626,76.782,2
0.206,0.263,0.685,-83.801,51.147,76.904,2
0.202,0.283,0.676,-82.031,48.462,77.576,2
0.198,0.322,0.655,-78.552,46.631,77.82,2
0.206,0.337,0.643,-75.012,45.593,78.064,2
0.22,0.36,0.623,-72.388,43.762,77.881,2
0.224,0.379,0.614,-69.641,40.833,76.782,2
0.224,0.392,0.604,-67.505,37.537,75.195,2
0.217,0.414,0.592,-64.697,33.569,72.937,2
0.204,0.43,0.584,-62.256,29.907,69.763,2
0.195,0.455,0.571,-59.631,27.588,66.528,2
0.191,0.469,0.564,-56.091,25.94,63.232,2
0.187,0.476,0.552,-52.49,25.024,60.791,2
0.186,0.49,0.537,-48.401,24.048,58.228,2
0.186,0.495,0.54,-45.349,22.949,55.298,2
0.182,0.505,0.54,-43.579,21.729,51.941,2
0.169,0.526,0.542,-41.748,20.02,48.279,2
0.166,0.549,0.537,-40.1,19.47,45.898,2
0.174,0.582,0.529,-36.926,18.86,44.617,2
0.18,0.589,0.539,-33.508,18.066,41.931,2
0.18,0.592,0.531,-29.846,17.09,38.147,2
0.179,0.609,0.534,-24.597,15.381,34.485,2
0.19,0.59,0.556,-20.081,14.832,31.25,2
0.208,0.573,0.589,-16.907,15.137,28.564,2
0.226,0.573,0.622,-15.076,14.832,25.452,2
0.233,0.584,0.656,-13.672,13.367,21.667,2
0.225,0.614,0.666,-10.742,11.536,18.677,2
0.211,0.593,0.681,-7.446,10.62,15.93,2
0.221,0.569,0.691,-5.92,11.536,14.16,2
0.244,0.566,0.693,-4.639,12.329,12.512,2
0.256,0.55,0.708,-4.333,12.634,10.498,2
0.271,0.551,0.688,-4.028,12.085,9.277,2
0.281,0.531,0.671,-3.845,9.949,8.057,2
0.286,0.499,0.673,-6.348,8.179,7.629,2
0.288,0.5,0.686,-9.399,6.531,8.179,2
0.289,0.523,0.701,-12.512,4.883,8.179,2
0.291,0.544,0.719,-14.038,3.54,7.935,2
0.302,0.555,0.731,-13.245,2.93,7.935,2
0.308,0.558,0.74,-11.78,2.808,7.69,2
0.31,0.555,0.747,-10.071,2.38,7.446,2
0.31,0.565,0.761,-8.85,1.892,7.568,2
0.307,0.564,0.782,-9.094,1.587,7.812,2
