aX,aY,aZ,gX,gY,gZ
0.715,0.867,-0.053,2.93,4.517,28.748
0.799,0.887,-0.05,4.883,7.385,43.762
0.85,0.88,-0.033,8.85,10.01,63.904
0.858,0.827,-0.01,13.428,9.949,86.365
0.839,0.773,0.009,16.296,6.165,108.521
0.788,0.719,0.007,16.846,0.183,125.427
0.729,0.677,-0.007,15.991,-6.165,137.085
0.682,0.664,-0.018,15.991,-9.827,143.921
0.63,0.677,-0.025,16.479,-11.292,146.301
0.573,0.691,-0.022,16.113,-11.658,146.606
0.521,0.69,-0.021,15.503,-12.085,146.667
0.462,0.753,-0.011,15.625,-13.306,147.705
0.425,0.771,-0.018,13.733,-15.381,149.658
0.413,0.796,-0.027,12.817,-16.541,152.771
0.411,0.817,-0.031,11.841,-16.479,155.945
0.399,0.812,-0.027,10.315,-15.93,158.569
0.372,0.81,-0.019,9.644,-15.503,159.485
0.344,0.799,-0.011,9.46,-15.808,158.997
0.301,0.79,-0.009,9.521,-16.174,156.128
0.241,0.795,-0.009,9.949,-15.259,151.733
0.191,0.8,-0.005,10.376,-13.855,146.912
0.183,0.812,0,11.23,-12.085,141.846
0.175,0.825,0.002,11.719,-10.986,133.667
0.155,0.846,-0.002,11.23,-9.827,122.375
0.13,0.871,0.008,10.559,-7.08,108.215
0.119,0.909,0.019,9.827,-3.967,91.309
0.099,0.941,0.011,7.69,-1.16,73.303
0.08,0.975,0.037,7.08,3.052,55.542
0.07,1.001,0.046,6.348,6.104,39.124
0.069,1.033,0.056,5.31,7.996,25.574
0.068,1.065,0.062,4.7,9.155,15.381
0.069,1.085,0.066,4.517,10.071,9.888
0.043,1.092,0.078,4.944,10.864,8.24
0.006,1.099,0.086,5.737,10.071,9.277
0.01,1.1,0.082,5.676,7.507,11.963
0.045,1.101,0.076,5.615,4.333,14.221
0.073,1.107,0.072,5.188,1.831,15.259
0.081,1.098,0.066,4.15,-0.427,15.381
0.078,1.081,0.064,2.686,-1.831,14.832
0.072,1.058,0.067,1.099,-3.052,13.611
0.071,1.043,0.066,-0.427,-3.967,11.292
0.071,1.032,0.061,-2.136,-4.883,7.996
0.073,1.021,0.055,-3.784,-5.615,4.7
0.073,1.014,0.053,-4.761,-5.554,2.197
0.083,1.005,0.055,-5.493,-5.31,0.61
0.1,0.992,0.057,-5.981,-5.798,-0.854
0.111,0.978,0.05,-6.409,-6.958,-1.953
0.114,0.965,0.04,-6.653,-8.362,-2.563
0.119,0.955,0.027,-6.409,-8.789,-3.052
0.121,0.944,0.02,-6.104,-7.812,-3.601
0.124,0.938,0.018,-5.249,-6.042,-4.089
0.124,0.934,0.02,-4.761,-4.333,-4.822
0.127,0.928,0.02,-3.784,-2.808,-5.554
0.136,0.928,0.023,-2.869,-1.587,-6.47
0.147,0.932,0.025,-2.075,-0.671,-7.202
0.15,0.934,0.029,-1.526,-0.488,-7.812
0.15,0.935,0.031,-0.732,-0.793,-7.935
0.154,0.936,0.03,0.183,-1.648,-7.385
0.156,0.942,0.027,0.732,-2.563,-6.531
0.158,0.946,0.021,1.16,-3.235,-5.188
0.163,0.945,0.015,1.343,-3.601,-3.601
0.163,0.944,0.013,1.465,-3.54,-1.648
0.162,0.947,0.012,1.892,-2.869,0.305
0.159,0.949,0.013,2.136,-1.892,2.075
0.151,0.95,0.017,2.197,-1.099,3.601
0.142,0.949,0.02,2.625,-0.305,4.761
0.135,0.949,0.027,2.93,0.488,5.493
0.126,0.949,0.032,3.052,1.099,5.676
0.124,0.959,0.031,2.869,1.343,5.859
0.128,0.97,0.028,2.502,1.465,5.615
0.128,0.981,0.028,2.136,2.075,5.31
0.125,0.987,0.029,1.892,2.502,5.31
0.117,0.988,0.032,1.343,2.869,5.493
0.11,0.981,0.036,0.916,3.052,5.676
0.111,0.978,0.038,0.427,2.93,5.676
0.111,0.976,0.038,0.244,2.625,5.188
0.108,0.974,0.037,0.366,2.136,4.456
0.105,0.972,0.041,0.916,1.465,3.601
0.104,0.973,0.04,1.16,0.977,2.563
0.104,0.978,0.041,1.343,0.61,1.16
0.104,0.983,0.039,1.831,0.244,-0.427
0.105,0.994,0.036,1.77,0.122,-0.61
0.107,0.997,0.037,1.465,0.244,-0.305
0.109,0.996,0.037,1.16,0.183,0.061
0.112,0.995,0.036,0.671,0.427,0.549
0.11,0.99,0.038,0.305,0.488,1.038
0.112,0.985,0.037,0.061,0.549,1.282
0.113,0.982,0.037,-0.244,0.61,1.221
0.116,0.981,0.037,-0.732,0.793,0.549
0.113,0.98,0.037,-1.038,0.916,-0.122
0.113,0.98,0.037,-1.16,0.854,-1.16
0.117,0.979,0.035,-1.404,0.916,-1.77
0.119,0.978,0.034,-1.526,0.793,-2.075
0.119,0.977,0.034,-1.526,0.427,-2.319
0.119,0.974,0.034,-1.282,0.183,-2.136
0.121,0.971,0.033,-1.038,0,-1.953
0.125,0.97,0.03,-0.732,-0.305,-1.709
0.128,0.968,0.029,-0.488,-0.488,-1.465
0.131,0.966,0.027,0,-0.549,-1.16
0.134,0.965,0.028,0.488,-0.183,-1.587
0.133,0.964,0.028,0.671,0,-2.014
0.134,0.964,0.029,0.854,0.061,-2.197
0.133,0.965,0.029,1.038,0.061,-2.441
0.129,0.965,0.031,1.099,0.122,-2.502
0.125,0.965,0.033,1.16,0.122,-2.502
0.126,0.966,0.033,1.16,-0.244,-1.77
0.123,0.967,0.036,1.282,-0.671,-1.343
0.127,0.969,0.034,1.221,-1.099,-1.038
0.131,0.971,0.033,1.099,-1.404,-0.61
0.133,0.971,0.033,0.977,-1.404,-0.366
0.135,0.973,0.033,0.916,-1.465,-0.244
0.137,0.975,0.033,0.793,-1.526,-0.244
0.137,0.974,0.034,0.549,-1.465,-0.122
0.135,0.974,0.036,0.671,-1.343,0.427
0.132,0.972,0.036,0.854,-1.526,0.61
0.131,0.972,0.036,0.671,-1.648,0.916
0.131,0.972,0.035,0.671,-1.648,1.282
0.13,0.973,0.035,0.793,-1.648,1.526
0.129,0.973,0.036,0.671,-2.075,1.526
0.648,0.966,-0.042,3.479,7.385,25.452
0.658,0.965,-0.006,8.301,9.705,40.405
0.635,0.944,0.019,13.55,8.85,60.486
0.597,0.895,0.036,13.367,4.456,80.933
0.552,0.831,0.032,10.803,-1.77,98.328
0.489,0.757,0.026,10.071,-7.019,111.084
0.414,0.697,0.014,9.644,-10.254,117.554
0.351,0.682,-0.001,8.301,-13.062,115.54
0.315,0.692,-0.031,5.249,-14.465,105.53
0.283,0.733,-0.035,0.488,-13.123,90.332
0.251,0.794,-0.043,-2.625,-10.376,71.899
0.224,0.835,-0.037,-3.723,-6.897,52.856
0.222,0.887,-0.027,-5.005,-4.089,35.4
0.234,0.939,-0.016,-5.371,-2.38,21.179
0.255,0.975,-0.008,-5.493,-1.892,11.23
0.272,0.999,-0.011,-5.066,-1.648,5.432
0.291,1.016,-0.006,-4.517,-1.343,2.991
0.309,1.044,-0.007,-4.211,-0.732,3.784
0.317,1.045,0.011,-2.563,0.305,7.874
0.317,1.027,0.035,0,-0.793,13.428
0.322,1.018,0.038,1.343,-5.005,17.578
0.345,1.013,0.027,1.587,-10.01,20.996
0.348,1.009,0.011,1.953,-13.367,24.292
0.329,0.997,-0.039,0.122,-13.245,28.198
0.318,0.975,-0.035,-0.671,-7.019,32.898
0.307,0.954,0.027,1.343,-0.061,37.72
0.298,0.953,0.051,0.183,-0.732,40.649
0.291,0.95,0.028,-2.563,-6.287,41.382
0.274,0.944,-0.001,-3.723,-10.437,40.833
0.244,0.939,-0.021,-4.028,-10.437,39.307
0.229,0.934,-0.03,-4.883,-7.324,36.316
0.232,0.929,-0.029,-5.249,-3.174,32.532
0.242,0.928,-0.021,-5.371,0.916,28.381
0.246,0.918,-0.012,-5.127,3.54,24.475
0.245,0.921,-0.015,-4.761,4.761,20.874
0.244,0.924,-0.013,-3.601,5.859,17.944
0.24,0.919,-0.007,-2.014,6.592,15.93
0.238,0.918,-0.005,-0.427,6.226,14.526
0.241,0.919,-0.007,1.038,4.883,13.184
0.25,0.918,-0.01,2.014,3.662,12.024
0.255,0.919,-0.013,2.747,2.808,10.498
0.25,0.918,-0.016,2.93,2.441,8.484
0.238,0.922,-0.016,2.808,2.625,6.104
0.226,0.926,-0.011,2.625,2.93,3.052
0.215,0.929,-0.007,2.075,2.991,0
0.205,0.937,-0.005,1.953,2.686,-2.441
0.195,0.946,-0.005,1.648,1.526,-3.967
0.19,0.952,-0.006,1.831,0.488,-5.005
0.188,0.961,-0.009,1.953,-0.549,-5.249
0.192,0.967,-0.012,1.77,-1.587,-4.7
0.199,0.969,-0.01,1.77,-2.258,-3.723
0.207,0.973,-0.008,1.709,-2.808,-2.563
0.213,0.97,-0.005,1.465,-3.357,-1.343
0.22,0.966,-0.007,1.526,-3.662,-0.061
0.225,0.961,-0.006,1.465,-4.211,0.732
0.228,0.962,-0.008,1.587,-4.333,0.977
0.234,0.965,-0.01,1.465,-4.395,1.099
0.236,0.97,-0.01,1.282,-3.967,1.282
0.235,0.97,-0.007,1.221,-3.296,1.526
0.228,0.967,0,1.282,-2.869,2.014
0.227,0.965,0.002,1.221,-2.625,2.686
0.228,0.962,0.006,1.16,-2.502,3.052
0.227,0.963,0.007,1.343,-2.747,2.93
0.229,0.967,0.003,1.343,-3.052,2.502
0.23,0.965,0.001,1.099,-3.235,2.991
0.227,0.963,0.001,1.038,-2.869,3.235
0.228,0.963,-0.002,0.977,-2.747,3.418
0.229,0.965,-0.005,0.854,-2.563,3.235
0.233,0.964,-0.007,0.549,-1.953,3.418
0.234,0.964,-0.008,0.488,-1.16,3.601
0.236,0.96,-0.008,0.305,-0.427,3.601
0.232,0.957,-0.004,0.183,0.244,3.662
0.227,0.955,-0.004,0.244,0.793,3.784
0.23,0.952,-0.004,0.366,0.854,3.906
0.226,0.95,-0.005,0.488,0.977,3.967
0.226,0.95,-0.006,0.366,1.038,3.784
0.225,0.95,-0.009,0.488,1.16,3.845
0.22,0.948,-0.008,0.366,1.526,3.662
0.219,0.95,-0.007,0.61,1.709,3.052
0.22,0.955,-0.007,0.549,1.892,2.625
0.216,0.956,-0.005,0.61,2.197,2.319
0.209,0.955,-0.003,0.61,2.136,1.953
0.209,0.954,-0.003,0.977,1.892,2.014
0.211,0.957,-0.002,1.221,1.587,2.014
0.211,0.96,-0.006,1.221,1.16,1.831
0.212,0.965,-0.009,1.343,0.793,2.197
0.209,0.962,-0.008,1.465,1.038,2.686
0.206,0.958,-0.004,1.526,1.038,3.113
0.211,0.957,-0.003,1.648,0.793,3.296
0.213,0.956,-0.002,1.648,0.732,3.235
0.211,0.96,-0.002,1.77,0.61,2.808
0.208,0.962,-0.001,1.587,0.549,2.319
0.207,0.961,0.001,1.648,0.488,2.014
0.208,0.962,0.002,1.465,0.427,1.648
0.208,0.965,0.002,1.404,0.122,1.16
0.21,0.966,0.001,1.221,-0.183,0.732
0.212,0.966,-0.001,1.221,-0.061,0.427
0.212,0.965,-0.001,0.977,-0.061,0.427
0.205,0.965,0,0.671,0.305,0.366
0.204,0.966,0.002,0.366,0.366,0.488
0.209,0.966,0.001,0.244,0.244,0.671
0.211,0.964,0.001,-0.061,0.061,0.671
0.209,0.96,0.001,-0.244,-0.061,0.732
0.208,0.958,0,-0.305,-0.183,0.427
0.208,0.959,0,-0.122,-0.244,0.061
0.209,0.958,0,-0.244,-0.549,0
0.208,0.957,-0.001,-0.061,-0.732,-0.183
0.209,0.957,-0.003,0,-0.977,-0.366
0.209,0.959,-0.002,0,-1.038,-0.427
0.211,0.959,-0.003,0.305,-1.099,-0.61
0.214,0.96,-0.002,0.366,-1.038,-0.366
0.213,0.96,-0.002,0.549,-1.099,-0.244
0.212,0.961,0,0.61,-1.038,-0.305
0.215,0.96,0,0.671,-1.16,-0.183
0.216,0.96,0.001,0.671,-1.526,-0.305
0.217,0.959,0.001,0.671,-1.465,-0.183
0.219,0.96,0.001,0.549,-1.648,-0.244
0.221,0.959,0.001,0.549,-1.709,-0.244
0.22,0.959,0.001,0.305,-1.77,-0.366
0.568,1.052,-0.003,-1.587,10.376,34.18
0.557,1.054,0.02,5.249,10.864,57.556
0.488,1.027,0.05,9.521,8.606,85.999
0.475,0.958,0.057,9.216,1.648,114.014
0.482,0.893,0.035,8.179,-7.141,137.878
0.46,0.857,0.013,8.606,-14.16,156.128
0.443,0.843,-0.013,8.85,-18.799,168.091
0.422,0.837,-0.024,8.24,-20.569,175.11
0.315,0.832,-0.033,7.08,-20.325,177.795
0.194,0.82,-0.023,5.371,-18.25,178.467
0.147,0.816,-0.025,2.991,-17.761,178.345
0.146,0.823,-0.025,0.732,-18.372,176.147
0.132,0.839,-0.027,-1.77,-18.311,168.579
0.091,0.839,-0.015,-4.639,-17.761,154.724
0.025,0.834,0.005,-7.996,-16.541,135.315
-0.027,0.849,0.01,-14.771,-15.503,111.328
-0.053,0.874,-0.003,-16.907,-14.282,84.412
-0.07,0.909,-0.025,-16.663,-10.437,57.922
-0.073,0.95,-0.029,-15.503,-4.272,34.79
-0.063,0.978,-0.01,-13.245,2.441,16.968
-0.064,0.986,0.008,-11.475,6.47,4.15
-0.057,0.997,0.023,-9.155,7.629,-4.028
-0.058,1.012,0.021,-6.104,6.531,-8.85
-0.041,1.038,0.009,-2.93,5.127,-10.742
-0.02,1.044,0.009,1.038,4.578,-9.827
-0.01,1.041,0.009,3.784,3.357,-7.69
-0.015,1.023,0.003,4.761,1.343,-6.653
-0.025,1.007,-0.001,5.066,0.061,-8.789
-0.023,0.997,0,5.432,-0.305,-13.794
-0.032,1.002,0.002,6.104,-0.366,-20.02
-0.04,1.014,0.001,6.348,-0.244,-26.001
-0.031,1.021,0.002,5.737,-0.183,-29.602
-0.014,1.028,0.001,5.005,-0.061,-30.823
0,1.03,0.004,4.272,-0.061,-29.541
0.01,1.025,0.005,2.869,-0.732,-26.306
0.024,1.016,0.002,1.526,-2.136,-21.545
0.038,1.003,0,0.488,-3.296,-16.052
0.05,0.991,-0.003,-0.061,-4.333,-10.925
0.061,0.972,-0.004,-0.244,-5.188,-6.714
0.068,0.953,-0.008,-0.366,-5.798,-4.333
0.071,0.939,-0.014,-0.488,-5.493,-3.601
0.08,0.935,-0.015,-0.732,-4.395,-4.578
0.089,0.935,-0.014,-1.221,-2.869,-5.92
0.092,0.944,-0.008,-0.854,-1.282,-6.958
0.097,0.958,-0.003,-0.671,-0.061,-7.446
0.103,0.964,-0.002,-0.549,0.061,-6.897
0.104,0.959,-0.004,-0.427,-0.427,-5.066
0.101,0.958,-0.003,0.305,-0.793,-3.357
0.102,0.958,0,1.221,-1.343,-1.709
0.11,0.956,0.001,2.258,-2.563,0.183
0.112,0.954,-0.006,3.113,-4.089,2.197
0.111,0.95,-0.013,3.601,-5.249,4.15
0.107,0.95,-0.017,3.906,-5.066,5.92
0.092,0.94,-0.016,4.089,-4.089,7.629
0.083,0.941,-0.01,4.028,-2.808,9.094
0.075,0.943,-0.005,3.723,-1.953,9.888
0.074,0.959,-0.003,3.418,-1.831,10.01
0.071,0.969,-0.007,2.563,-2.136,10.315
0.065,0.973,-0.011,2.014,-1.526,10.864
0.059,0.974,-0.006,1.709,-0.244,11.353
0.055,0.973,0.005,1.709,0.488,11.78
0.052,0.974,0.008,1.709,0.183,11.963
0.051,0.975,0.005,1.709,-0.671,11.658
0.048,0.977,0.002,1.831,-0.854,10.62
0.044,0.977,0.006,2.319,-0.305,9.583
0.037,0.977,0.012,2.686,0.122,7.751
0.032,0.976,0.016,2.991,-0.061,5.493
0.03,0.983,0.015,3.296,-0.366,2.441
0.026,0.993,0.013,3.357,-0.427,-0.427
0.021,1.001,0.013,3.113,-0.122,-2.686
0.02,1.007,0.016,2.625,0.366,-4.089
0.021,1.011,0.019,2.197,0.671,-5.188
0.024,1.015,0.023,1.831,0.671,-5.615
0.025,1.013,0.026,1.526,0.183,-5.554
0.031,1.016,0.024,1.099,-0.61,-5.127
0.041,1.016,0.02,0.549,-1.77,-4.089
0.052,1.013,0.018,0.244,-2.747,-3.113
0.056,1.005,0.015,-0.244,-3.296,-1.709
0.057,0.992,0.009,-0.671,-3.54,-0.183
0.057,0.978,0.004,-0.793,-3.235,0.366
0.063,0.975,-0.002,-1.099,-2.502,0.061
0.066,0.975,-0.005,-1.343,-1.526,-0.427
0.066,0.976,-0.005,-1.404,-0.061,-0.854
0.062,0.974,-0.004,-1.282,1.404,-0.916
0.061,0.969,0,-1.16,2.38,-0.732
0.06,0.962,0.003,-0.916,2.808,-0.732
0.053,0.958,0.007,-0.305,2.747,-0.916
0.054,0.964,0.009,0.305,2.319,-1.282
0.056,0.969,0.012,1.038,1.587,-1.648
0.054,0.973,0.01,1.404,0.671,-1.709
0.054,0.972,0.006,1.343,-0.183,-1.404
0.052,0.975,0.007,1.526,-0.366,-1.038
0.055,0.974,0.008,1.465,-0.244,-0.671
0.056,0.974,0.013,1.465,-0.427,-0.61
0.055,0.974,0.015,1.282,-1.038,-0.549
0.056,0.974,0.014,1.038,-1.587,-0.488
0.057,0.973,0.014,0.977,-1.953,-0.549
0.056,0.973,0.014,1.16,-2.197,-0.732
0.053,0.97,0.013,1.099,-2.563,-0.977
0.054,0.972,0.013,0.793,-2.808,-1.465
0.052,0.972,0.012,0.732,-2.686,-1.648
0.053,0.976,0.012,0.793,-2.38,-1.77
0.052,0.979,0.011,0.427,-2.258,-1.587
0.053,0.984,0.013,0.488,-2.075,-1.404
0.059,0.988,0.015,0.366,-1.709,-1.404
0.058,0.989,0.017,0.305,-1.709,-1.282
0.059,0.985,0.019,0.122,-1.77,-1.038
0.059,0.984,0.021,0.183,-1.953,-0.732
0.057,0.984,0.02,0.366,-2.38,-0.732
0.056,0.982,0.02,0.366,-2.686,-1.038
0.058,0.98,0.018,0.061,-2.747,-1.16
0.063,0.984,0.015,-0.183,-2.563,-1.648
0.067,0.986,0.011,-0.122,-2.258,-2.441
0.069,0.989,0.006,-0.427,-1.709,-2.747
0.071,0.986,0.008,-0.793,-0.916,-2.747
0.067,0.98,0.011,-1.038,0,-2.686
0.066,0.978,0.012,-0.916,0.793,-2.502
0.07,0.976,0.013,-1.099,1.038,-2.502
0.068,0.976,0.011,-0.793,0.916,-2.625
0.593,0.955,-0.041,8.667,2.686,44.25
0.635,0.947,-0.041,10.681,3.113,62.622
0.679,0.921,-0.026,15.686,4.028,83.801
0.708,0.891,-0.01,19.714,3.601,106.812
0.7,0.843,0.014,21.912,1.099,128.357
0.657,0.798,0.029,21.545,-4.028,146.851
0.589,0.752,0.023,20.325,-10.559,160.706
0.5,0.703,0.024,19.226,-16.174,170.227
0.397,0.674,0.023,17.639,-20.569,174.438
0.316,0.683,0.001,15.259,-23.499,172.241
0.291,0.724,-0.02,11.047,-24.292,163.086
0.289,0.774,-0.035,7.568,-22.095,150.085
0.273,0.801,-0.031,3.784,-17.761,135.254
0.242,0.812,-0.02,0.61,-13.123,120.3
0.217,0.835,-0.012,-1.648,-9.644,105.713
0.198,0.861,-0.007,-2.869,-7.507,92.529
0.183,0.887,-0.01,-3.601,-6.287,82.031
0.164,0.908,-0.012,-3.174,-4.944,74.097
0.134,0.918,-0.016,-2.136,-2.93,68.726
0.122,0.918,-0.003,-0.244,-0.366,64.941
0.122,0.928,0.03,2.747,0.793,59.753
0.123,0.948,0.044,3.967,-1.709,50.476
0.114,0.979,0.036,4.333,-5.615,39.185
0.105,1.02,0.027,4.883,-7.324,28.015
0.099,1.052,0.022,4.639,-6.592,18.433
0.087,1.066,0.034,4.15,-4.15,9.766
0.081,1.089,0.048,3.479,-2.014,1.892
0.085,1.106,0.057,2.502,-1.282,-3.601
0.091,1.11,0.062,2.075,-1.709,-6.348
0.1,1.113,0.063,1.221,-3.052,-6.836
0.113,1.108,0.062,0.427,-4.517,-5.493
0.131,1.091,0.059,-0.427,-6.104,-3.113
0.147,1.067,0.053,-1.465,-8.057,-0.366
0.148,1.042,0.045,-2.319,-9.583,2.441
0.142,1.018,0.036,-2.991,-10.62,4.822
0.133,0.993,0.026,-3.235,-10.315,6.47
0.126,0.971,0.02,-3.357,-8.85,7.141
0.129,0.955,0.015,-3.357,-7.324,7.69
0.138,0.945,0.007,-3.723,-5.432,7.446
0.147,0.938,0.005,-3.723,-3.479,6.775
0.154,0.932,0.009,-3.296,-1.892,6.409
0.16,0.927,0.01,-2.869,-0.854,5.676
0.164,0.925,0.01,-2.563,-0.488,5.066
0.167,0.924,0.008,-2.014,-0.488,4.395
0.173,0.924,0.007,-1.343,0,3.54
0.171,0.923,0.007,-0.427,0.549,3.174
0.167,0.928,0.009,0.549,1.465,3.174
0.165,0.933,0.014,1.221,1.77,3.357
0.161,0.942,0.018,1.831,2.136,3.906
0.156,0.949,0.024,2.441,1.831,4.456
0.154,0.957,0.028,2.747,0.671,5.371
0.154,0.958,0.024,2.625,-0.427,7.08
0.155,0.96,0.021,2.563,-1.648,8.362
0.151,0.961,0.02,2.441,-2.014,9.399
0.147,0.958,0.02,1.953,-2.319,10.132
0.141,0.957,0.019,1.587,-2.38,10.254
0.135,0.967,0.02,0.916,-2.014,10.315
0.133,0.97,0.026,0.854,-1.404,10.925
0.134,0.969,0.034,0.793,-1.526,11.597
0.125,0.976,0.034,0.671,-1.831,12.146
0.119,0.977,0.03,0.366,-2.563,13
0.121,0.976,0.027,0,-2.93,13.672
0.12,0.974,0.027,0.122,-2.747,13.977
0.115,0.969,0.029,-0.061,-2.625,13.733
0.108,0.961,0.027,-0.183,-2.991,12.817
0.101,0.963,0.025,-0.122,-2.808,10.742
0.1,0.965,0.022,-0.183,-2.625,8.24
0.098,0.972,0.024,-0.061,-2.258,5.859
0.096,0.983,0.028,0.305,-1.587,3.662
0.088,0.985,0.035,0.183,-1.465,2.197
0.088,0.99,0.03,0.305,-1.831,1.16
0.09,0.996,0.028,0.183,-1.465,0.122
0.093,1,0.03,0.244,-0.793,-0.977
0.098,1.002,0.03,0.122,-0.366,-1.709
0.105,1.004,0.032,-0.061,-0.061,-2.38
0.111,1.007,0.031,-0.122,-0.427,-2.686
0.113,1.006,0.027,-0.427,-0.61,-2.563
0.115,1.005,0.024,-0.671,-0.488,-2.075
0.118,1.001,0.023,-0.977,-0.305,-1.404
0.121,0.992,0.017,-1.343,0.061,-0.854
0.121,0.981,0.018,-1.465,0.549,-0.916
0.12,0.981,0.019,-1.465,0.977,-1.831
0.12,0.983,0.016,-1.648,1.221,-2.502
0.123,0.979,0.013,-1.77,1.465,-2.686
0.124,0.973,0.011,-1.648,1.831,-2.869
0.122,0.967,0.01,-1.77,2.441,-2.991
0.123,0.966,0.01,-1.831,2.808,-2.991
0.128,0.965,0.012,-1.831,3.174,-2.869
0.129,0.959,0.011,-1.648,3.174,-2.808
0.129,0.958,0.01,-1.77,2.93,-2.686
0.131,0.957,0.01,-1.526,2.808,-2.502
0.132,0.957,0.008,-1.221,2.441,-2.197
0.131,0.955,0.007,-1.038,2.319,-1.709
0.133,0.956,0.005,-0.732,2.075,-1.343
0.131,0.956,0.008,-0.549,1.892,-1.038
0.13,0.957,0.011,-0.244,1.831,-0.793
0.128,0.959,0.012,0,1.526,-0.427
0.129,0.961,0.012,0,1.16,-0.244
0.131,0.965,0.013,0,0.854,0.061
0.129,0.968,0.012,-0.061,0.427,0.61
0.126,0.969,0.013,0.061,0.122,0.916
0.125,0.971,0.013,0.122,0.122,1.282
0.128,0.974,0.014,-0.122,-0.122,1.465
0.131,0.971,0.016,-0.488,-0.305,1.404
0.127,0.97,0.015,-0.488,-0.427,1.465
0.129,0.973,0.013,-0.61,-0.549,1.404
0.131,0.976,0.012,-0.671,-0.549,1.099
0.128,0.975,0.013,-0.427,-0.793,0.916
0.124,0.974,0.014,-0.366,-0.488,0.488
0.124,0.974,0.013,-0.244,0,0
0.125,0.974,0.012,-0.122,0.061,-0.549
0.125,0.977,0.012,-0.305,0,-0.916
0.12,0.977,0.01,-0.488,0.122,-1.404
0.123,0.979,0.009,-0.427,0.366,-1.465
0.128,0.981,0.009,-0.732,0.427,-1.526
0.126,0.98,0.011,-0.732,0.61,-1.892
0.124,0.975,0.014,-0.793,0.549,-2.502
0.124,0.973,0.018,-0.732,0.549,-3.113
0.126,0.975,0.018,-0.916,0.305,-3.723
0.598,1.019,-0.038,0.244,8.789,23.987
0.621,1.02,-0.004,4.517,10.986,42.664
0.638,0.99,0.015,10.01,10.498,69.031
0.622,0.916,0.043,9.949,6.348,96.436
0.584,0.843,0.053,9.216,-8.789,136.353
0.531,0.751,-0.008,8.362,-14.465,146.118
0.47,0.742,-0.026,9.399,-15.564,150.635
0.391,0.739,-0.017,9.827,-13.794,151.123
0.297,0.751,-0.002,9.216,-12.634,150.085
0.227,0.8,-0.003,8.85,-13.489,149.841
0.252,0.853,-0.024,7.141,-15.991,149.963
0.295,0.86,-0.051,4.883,-16.846,150.33
0.229,0.862,-0.037,4.211,-14.221,149.231
0.192,0.833,-0.021,2.197,-11.536,145.081
0.169,0.816,-0.015,1.099,-10.437,138.306
0.122,0.788,-0.005,0.977,-9.338,128.479
0.068,0.79,0.002,0.122,-7.996,114.99
0.037,0.818,-0.002,-1.526,-7.019,98.145
0.017,0.857,-0.001,-0.244,-4.517,79.041
-0.002,0.909,0.005,1.831,-0.793,59.326
-0.014,0.966,0.023,3.479,2.747,40.71
-0.02,1.019,0.032,3.967,4.883,25.208
-0.026,1.06,0.039,4.272,5.981,13.245
-0.029,1.09,0.033,4.211,7.019,5.127
-0.028,1.106,0.039,4.517,8.728,0.122
-0.025,1.12,0.059,5.859,10.01,-2.747
-0.018,1.129,0.07,5.981,9.155,-3.906
-0.016,1.123,0.074,6.226,6.775,-3.967
-0.018,1.106,0.075,6.287,3.479,-3.479
-0.009,1.092,0.071,5.493,0.183,-3.296
0.003,1.083,0.063,4.333,-2.38,-3.174
0.01,1.075,0.055,3.601,-4.089,-2.747
0.013,1.06,0.05,2.808,-4.944,-2.014
0.023,1.046,0.044,1.648,-5.371,-0.427
0.036,1.031,0.035,0.488,-5.493,1.16
0.044,1.016,0.027,-0.977,-4.883,2.563
0.041,1,0.025,-1.892,-3.906,3.601
0.034,0.982,0.024,-2.625,-2.747,4.822
0.043,0.969,0.026,-3.357,-1.526,5.676
0.054,0.956,0.028,-4.089,-0.854,5.493
0.057,0.946,0.026,-4.272,-1.038,4.761
0.06,0.935,0.021,-4.395,-1.465,3.235
0.065,0.926,0.016,-4.639,-1.465,0.977
0.074,0.926,0.011,-5.188,-1.221,-1.526
0.074,0.93,0.009,-4.883,-0.61,-3.967
0.075,0.928,0.009,-4.272,0.183,-6.409
0.076,0.93,0.01,-3.601,0.549,-8.484
0.079,0.939,0.011,-2.625,1.038,-10.132
0.086,0.951,0.013,-1.77,1.038,-10.925
0.088,0.958,0.017,-0.977,0.549,-11.108
0.093,0.959,0.021,-0.061,0.061,-10.681
0.099,0.958,0.022,1.038,-0.916,-9.583
0.1,0.958,0.022,1.892,-1.892,-8.179
0.103,0.958,0.021,2.502,-2.747,-6.714
0.099,0.958,0.02,3.357,-3.296,-5.31
0.092,0.957,0.02,3.784,-3.54,-4.089
0.086,0.959,0.02,3.906,-3.54,-2.869
0.085,0.97,0.02,3.662,-3.174,-1.648
0.085,0.975,0.017,3.113,-2.808,0
0.081,0.978,0.011,2.38,-1.709,1.831
0.078,0.977,0.016,1.953,0.427,3.357
0.078,0.974,0.028,1.587,1.77,4.761
0.077,0.973,0.033,0.854,2.075,5.432
0.068,0.977,0.033,0.366,1.709,5.554
0.063,0.981,0.033,0.122,1.526,5.432
0.062,0.982,0.035,-0.061,1.526,5.554
0.066,0.985,0.038,0.244,1.221,5.859
0.067,0.986,0.04,0.61,0.427,5.554
0.065,0.984,0.038,0.977,-0.366,5.31
0.068,0.993,0.036,1.16,-1.16,5.249
0.067,0.988,0.031,1.221,-1.465,5.066
0.064,0.99,0.028,1.282,-1.343,4.395
0.065,0.992,0.03,1.343,-1.099,3.662
0.063,0.993,0.026,0.916,-0.61,2.747
0.062,0.993,0.024,0.549,-0.244,1.953
0.063,0.993,0.025,0,0.305,1.465
0.066,0.992,0.028,-0.183,0.671,1.587
0.071,0.994,0.029,-0.305,0.549,1.648
0.072,0.99,0.027,-0.61,0.244,1.526
0.07,0.986,0.026,-0.671,-0.183,1.221
0.07,0.983,0.023,-0.793,-0.427,0.427
0.07,0.979,0.019,-1.282,-0.549,-0.916
0.069,0.975,0.019,-1.282,-0.061,-1.831
0.068,0.974,0.019,-1.282,0.427,-2.686
0.07,0.975,0.019,-1.282,0.916,-3.479
0.069,0.978,0.02,-1.343,0.916,-4.028
0.069,0.979,0.019,-1.282,0.854,-4.456
0.069,0.978,0.021,-1.099,0.61,-4.211
0.072,0.974,0.021,-0.671,0.366,-3.845
0.075,0.97,0.022,-0.61,-0.061,-3.601
0.079,0.967,0.022,-0.488,-0.549,-3.54
0.074,0.963,0.024,-0.244,-0.977,-3.662
0.07,0.959,0.022,-0.183,-1.221,-4.028
0.072,0.959,0.023,-0.183,-1.343,-4.333
0.075,0.961,0.024,0.122,-1.465,-5.066
0.073,0.966,0.025,0.244,-1.526,-5.737
0.074,0.973,0.026,0.244,-1.465,-6.104
0.076,0.981,0.026,0.305,-1.648,-6.104
0.078,0.985,0.026,0.305,-1.831,-5.859
0.083,0.985,0.026,0.061,-2.197,-5.249
0.09,0.985,0.025,-0.305,-2.563,-4.639
0.093,0.985,0.023,-0.244,-2.686,-3.784
0.094,0.983,0.024,-0.366,-2.625,-3.357
0.094,0.981,0.026,-0.366,-2.747,-2.991
0.093,0.976,0.028,-0.366,-2.686,-2.869
0.09,0.974,0.031,-0.183,-2.625,-3.052
0.088,0.978,0.032,-0.183,-2.319,-3.357
0.088,0.985,0.028,-0.244,-2.319,-3.845
0.091,0.987,0.027,-0.549,-2.319,-4.395
0.094,0.988,0.025,-0.671,-2.197,-4.578
0.095,0.987,0.025,-0.549,-1.831,-4.639
0.098,0.985,0.026,-0.854,-1.404,-4.639
0.101,0.983,0.024,-1.038,-1.282,-4.517
0.104,0.979,0.024,-1.038,-1.16,-4.578
0.105,0.976,0.021,-1.221,-0.854,-4.883
0.106,0.973,0.021,-1.404,-0.183,-5.432
0.105,0.971,0.021,-1.465,0.244,-6.042
0.105,0.969,0.021,-1.526,0.671,-6.409
0.105,0.968,0.021,-1.648,0.916,-7.019
0.557,0.972,-0.031,0.427,13.306,19.409
0.565,1.001,-0.018,4.15,14.954,31.067
0.592,0.997,-0.004,7.141,14.343,49.988
0.615,0.955,0,10.01,7.507,96.741
0.563,0.833,0.006,12.512,2.747,115.356
0.496,0.783,-0.007,12.634,-1.16,127.869
0.424,0.764,-0.007,13.672,-3.54,135.376
0.377,0.761,-0.021,13.611,-5.371,137.634
0.34,0.78,-0.028,13.184,-6.226,136.169
0.31,0.802,-0.038,12.207,-6.653,133.423
0.295,0.818,-0.058,10.254,-6.531,130.31
0.272,0.828,-0.062,8.606,-4.211,125.854
0.229,0.821,-0.053,7.141,-0.854,118.958
0.201,0.836,-0.04,6.042,2.075,109.68
0.168,0.834,-0.028,5.676,3.723,99.182
0.137,0.845,-0.02,5.859,4.822,86.609
0.114,0.862,-0.009,5.92,5.798,72.815
0.106,0.895,-0.003,6.165,6.47,58.838
0.104,0.933,0.003,6.836,7.019,45.471
0.096,0.967,0.006,6.958,7.446,34.058
0.083,0.999,0.01,6.836,8.24,25.452
0.085,1.033,0.013,6.653,8.789,20.203
0.094,1.054,0.021,6.714,8.911,17.151
0.097,1.058,0.029,6.836,8.057,15.381
0.092,1.059,0.033,6.47,6.409,13.489
0.09,1.059,0.031,6.104,4.517,10.986
0.087,1.06,0.035,5.859,2.808,8.85
0.081,1.064,0.036,5.249,1.038,7.141
0.083,1.063,0.032,4.272,-0.977,6.653
0.087,1.057,0.026,3.174,-2.38,7.019
0.088,1.048,0.021,2.014,-3.052,8.667
0.094,1.034,0.02,0.671,-3.418,10.62
0.098,1.021,0.016,-0.549,-3.418,12.329
0.105,1.008,0.015,-1.526,-3.235,13.733
0.119,0.997,0.013,-2.197,-3.174,15.076
0.124,0.982,0.012,-2.502,-3.296,16.357
0.101,0.965,0.014,-2.441,-3.113,17.822
0.096,0.957,0.008,-2.625,-2.93,18.799
0.114,0.947,0.003,-2.563,-2.808,19.043
0.12,0.938,0,-2.197,-2.502,18.433
0.112,0.932,-0.001,-1.831,-2.075,16.907
0.114,0.927,-0.003,-1.587,-1.709,14.099
0.115,0.926,-0.004,-1.038,-1.404,10.62
0.106,0.926,-0.001,-0.427,-0.916,6.653
0.099,0.932,0,0.122,-0.366,2.197
0.103,0.941,0,0.549,-0.305,-1.709
0.107,0.953,0,1.099,0,-4.822
0.109,0.964,0.004,1.343,0.305,-6.775
0.111,0.974,0.007,1.709,0.183,-7.629
0.108,0.981,0.01,2.014,-0.244,-7.446
0.104,0.985,0.014,2.38,-0.854,-6.47
0.108,0.986,0.013,2.502,-1.648,-4.822
0.114,0.985,0.014,2.319,-2.808,-3.174
0.115,0.982,0.014,2.258,-3.418,-1.404
0.111,0.979,0.017,2.258,-4.15,0.244
0.105,0.975,0.016,2.136,-5.005,1.587
0.105,0.974,0.014,1.831,-5.676,2.563
0.107,0.977,0.014,1.221,-5.798,3.235
0.106,0.982,0.012,0.549,-5.432,3.906
0.104,0.981,0.012,0.122,-5.127,4.883
0.102,0.981,0.013,-0.427,-4.578,6.042
0.099,0.981,0.014,-0.916,-4.15,7.568
0.097,0.977,0.014,-1.099,-4.089,8.606
0.096,0.973,0.014,-1.282,-3.845,9.033
0.094,0.973,0.016,-1.282,-3.723,9.033
0.093,0.975,0.015,-1.038,-3.235,8.667
0.096,0.98,0.013,-0.977,-3.113,7.69
0.097,0.985,0.015,-1.465,-2.686,6.348
0.097,0.985,0.013,-1.526,-2.319,5.31
0.101,0.988,0.011,-1.77,-2.136,4.883
0.102,0.986,0.01,-1.709,-1.953,4.7
0.1,0.98,0.012,-1.404,-1.77,4.883
0.095,0.976,0.015,-0.793,-1.892,4.944
0.094,0.973,0.014,-0.488,-2.136,4.639
0.095,0.973,0.01,-0.244,-2.319,3.784
0.097,0.975,0.007,-0.122,-2.258,2.441
0.097,0.981,0.003,-0.061,-1.892,1.343
0.096,0.985,0.001,-0.244,-1.221,0.183
0.094,0.987,0.002,-0.305,-0.427,-0.244
0.091,0.989,0.005,-0.427,0.427,-0.305
0.087,0.989,0.006,-0.854,1.038,0.122
0.089,0.986,0.007,-1.16,1.282,1.038
0.089,0.982,0.009,-1.282,1.526,1.892
0.086,0.974,0.009,-1.16,1.465,2.502
0.09,0.968,0.008,-1.16,1.038,2.808
0.092,0.964,0.006,-1.099,0.671,2.136
0.087,0.962,0.003,-1.099,0.488,1.282
0.087,0.964,0.002,-1.16,0.671,0.183
0.09,0.966,0.001,-1.099,0.916,-0.977
0.091,0.969,0.001,-1.038,1.099,-1.709
0.091,0.972,0.003,-0.854,1.038,-2.197
0.091,0.974,0.003,-0.427,0.916,-2.258
0.09,0.976,0.006,-0.183,0.61,-2.075
0.086,0.977,0.006,0,0.305,-1.709
0.085,0.977,0.005,0.183,-0.427,-1.221
0.087,0.976,0.004,0.305,-0.916,-0.793
0.096,0.978,0.001,0.244,-1.221,-0.427
0.098,0.978,0,0.183,-1.404,-0.549
0.098,0.979,-0.004,-0.244,-1.343,-0.854
0.097,0.974,-0.003,-0.671,-1.099,-1.221
0.093,0.972,0,-0.793,-0.61,-1.831
0.095,0.971,0.001,-0.916,-0.427,-2.441
0.093,0.974,0.001,-0.916,-0.427,-3.113
0.093,0.976,0.001,-1.099,-0.366,-3.723
0.091,0.979,0.001,-0.793,-0.305,-4.089
0.091,0.982,0.001,-0.793,-0.427,-4.333
0.097,0.984,0.001,-1.038,-0.61,-4.15
0.103,0.982,0.001,-1.099,-0.671,-4.089
0.104,0.983,0,-0.916,-0.488,-3.662
0.103,0.978,0,-0.671,-0.671,-3.479
0.106,0.973,-0.001,-0.793,-0.549,-3.601
0.106,0.971,0,-0.427,-0.671,-3.723
0.105,0.967,0,-0.366,-0.916,-4.028
0.105,0.967,0,-0.244,-0.793,-4.578
0.105,0.969,-0.003,-0.183,-0.671,-5.188
0.106,0.969,-0.003,0,-0.61,-5.798
0.107,0.97,-0.003,0,-0.366,-6.104
0.11,0.972,0,-0.061,-0.183,-6.531
0.11,0.972,0,0,-0.122,-6.897
0.545,1.088,-0.06,-4.089,2.441,30.518
0.578,1.078,-0.051,-3.418,5.31,47.974
0.572,1.037,-0.016,-1.221,8.057,70.618
0.545,0.97,0.019,0.305,8.606,95.703
0.513,0.9,0.036,1.648,5.798,119.629
0.466,0.847,0.037,3.357,0.793,139.465
0.398,0.814,0.021,4.883,-4.883,154.053
0.38,0.798,-0.008,5.066,-10.254,163.086
0.362,0.802,-0.03,5.554,-13.611,168.396
0.309,0.805,-0.051,5.981,-15.076,171.204
0.272,0.805,-0.075,5.005,-15.442,172.302
0.237,0.823,-0.082,3.662,-14.282,170.227
0.187,0.846,-0.079,1.282,-11.658,162.781
0.144,0.857,-0.07,-2.686,-8.911,150.94
0.095,0.862,-0.056,-5.737,-6.531,136.353
0.047,0.87,-0.05,-8.545,-4.456,119.69
0.019,0.887,-0.042,-10.498,-3.052,101.746
0,0.896,-0.032,-11.658,-1.77,83.801
-0.018,0.907,-0.024,-11.841,-1.526,66.711
-0.022,0.929,-0.026,-11.23,-2.38,51.025
-0.031,0.948,-0.043,-10.315,-3.296,38.574
-0.048,0.962,-0.047,-8.362,-2.686,29.297
-0.046,0.979,-0.038,-5.798,-1.282,21.729
-0.023,1.004,-0.023,-3.113,-1.587,14.709
-0.006,1.035,-0.026,-0.977,-3.906,8.057
-0.005,1.049,-0.036,0.549,-6.287,2.502
-0.008,1.056,-0.035,2.319,-7.019,-2.075
-0.015,1.049,-0.042,2.686,-6.714,-5.859
-0.02,1.038,-0.036,2.991,-5.005,-9.521
-0.014,1.035,-0.026,3.418,-3.479,-13.184
-0.009,1.034,-0.018,3.601,-2.747,-16.663
-0.002,1.036,-0.017,3.235,-2.869,-18.677
0.004,1.035,-0.019,3.235,-3.723,-18.921
0.017,1.031,-0.021,3.357,-4.211,-17.456
0.029,1.025,-0.023,3.601,-4.333,-14.771
0.042,1.014,-0.026,3.174,-4.578,-11.719
0.052,1.001,-0.031,2.441,-4.578,-8.423
0.056,0.991,-0.035,2.075,-4.15,-5.371
0.06,0.982,-0.042,1.465,-3.296,-3.052
0.068,0.971,-0.045,1.16,-1.648,-1.099
0.075,0.962,-0.043,0.916,-0.305,0.366
0.072,0.955,-0.039,0.854,0.916,0.854
0.069,0.948,-0.037,0.671,1.404,1.038
0.071,0.941,-0.035,0.793,1.587,0.671
0.075,0.938,-0.035,0.854,1.526,0.183
0.076,0.94,-0.035,1.404,1.343,-0.305
0.078,0.941,-0.034,1.953,0.916,-0.244
0.075,0.94,-0.033,2.625,0.366,-0.244
0.071,0.942,-0.031,3.418,-0.244,-0.122
0.068,0.946,-0.03,3.967,-1.16,-0.183
0.074,0.951,-0.03,4.517,-2.014,-0.061
0.077,0.956,-0.028,4.822,-2.93,0.183
0.073,0.962,-0.028,5.31,-3.662,0.427
0.069,0.962,-0.027,5.188,-4.333,0.854
0.069,0.96,-0.026,5.493,-5.005,1.465
0.067,0.96,-0.022,5.371,-5.676,2.197
0.065,0.964,-0.024,5.615,-6.104,2.93
0.059,0.969,-0.023,5.493,-6.287,3.113
0.054,0.973,-0.022,5.066,-6.165,2.747
0.049,0.979,-0.02,4.639,-5.798,2.808
0.048,0.983,-0.021,3.906,-5.188,2.625
0.048,0.987,-0.021,3.174,-4.7,2.625
0.047,0.992,-0.021,2.38,-3.723,2.441
0.048,0.994,-0.018,1.648,-2.93,1.953
0.047,0.994,-0.018,0.854,-2.258,1.16
0.048,0.996,-0.015,0.427,-1.648,0.366
0.048,0.998,-0.013,-0.183,-1.038,-0.366
0.048,1,-0.011,-0.671,-0.488,-1.16
0.046,0.996,-0.011,-0.977,0,-1.77
0.046,0.997,-0.011,-1.099,0.244,-2.197
0.045,0.997,-0.01,-1.16,0.427,-2.319
0.045,1.001,-0.011,-0.854,0.488,-2.502
0.048,1.004,-0.012,-1.038,0.366,-2.502
0.047,1.002,-0.014,-0.793,0.366,-2.38
0.051,1.001,-0.017,-0.549,0.427,-2.319
0.053,0.999,-0.02,-0.549,0.366,-2.197
0.054,0.994,-0.023,-0.732,0.427,-2.075
0.055,0.988,-0.024,-0.732,0.61,-2.197
0.056,0.982,-0.027,-0.916,0.793,-2.014
0.057,0.979,-0.028,-1.099,1.099,-1.953
0.058,0.975,-0.029,-1.038,1.343,-2.075
0.06,0.973,-0.031,-1.404,1.709,-2.502
0.06,0.969,-0.03,-1.404,2.075,-2.686
0.057,0.965,-0.028,-1.404,2.258,-2.869
0.055,0.964,-0.026,-1.465,2.38,-3.113
0.057,0.965,-0.026,-1.282,2.258,-3.296
0.06,0.961,-0.025,-0.977,1.831,-3.54
0.059,0.96,-0.023,-0.427,1.282,-3.845
0.057,0.96,-0.021,0,0.793,-4.15
0.06,0.961,-0.019,0.366,-0.122,-4.272
0.061,0.962,-0.016,0.916,-0.549,-4.578
0.062,0.965,-0.014,1.343,-1.404,-5.005
0.066,0.968,-0.015,1.709,-2.319,-5.127
0.069,0.973,-0.016,2.136,-2.93,-5.371
0.069,0.974,-0.016,2.38,-3.601,-5.615
0.069,0.979,-0.018,2.502,-4.089,-5.371
0.072,0.982,-0.019,2.319,-4.456,-5.127
0.075,0.984,-0.019,2.197,-4.517,-4.517
0.076,0.985,-0.018,2.136,-4.395,-3.723
0.078,0.982,-0.014,2.136,-4.517,-2.808
0.076,0.98,-0.01,2.258,-4.333,-2.014
0.081,0.98,-0.01,2.319,-4.517,-1.099
0.085,0.984,-0.011,2.197,-4.7,-0.732
0.084,0.985,-0.012,2.258,-4.883,-0.671
0.084,0.985,-0.013,2.014,-4.7,-0.671
0.085,0.987,-0.013,2.075,-4.395,-0.488
0.082,0.987,-0.013,1.465,-3.235,-0.732
0.083,0.988,-0.012,1.343,-2.686,-0.854
0.083,0.985,-0.011,0.916,-2.258,-0.854
0.082,0.982,-0.009,0.793,-1.77,-0.671
0.084,0.977,-0.009,0.732,-1.526,-0.671
0.085,0.972,-0.009,0.793,-1.648,-1.16
0.083,0.97,-0.011,0.854,-1.587,-1.648
0.083,0.969,-0.013,0.793,-1.404,-2.258
0.086,0.969,-0.014,0.671,-1.16,-2.686
0.085,0.974,-0.016,0.427,-0.671,-3.235
0.085,0.978,-0.016,0.244,-0.244,-3.723
0.085,0.98,-0.016,-0.183,0.366,-3.967
0.085,0.983,-0.015,-0.488,0.732,-3.723
0.668,0.919,-0.054,-7.629,6.714,19.531
0.656,0.953,-0.01,-2.075,10.437,36.56
0.607,0.951,0.005,0.732,8.911,79.712
0.562,0.88,0.026,6.042,-2.38,100.281
0.528,0.818,-0.018,5.676,-8.972,117.004
0.441,0.775,-0.021,7.324,-10.071,127.502
0.375,0.743,-0.028,7.202,-9.705,133.362
0.346,0.735,-0.028,7.019,-10.315,135.498
0.326,0.756,-0.038,6.836,-11.902,132.996
0.307,0.801,-0.06,4.944,-13.489,125.916
0.271,0.843,-0.075,3.723,-12.634,116.943
0.243,0.859,-0.075,1.587,-9.155,107.178
0.228,0.885,-0.051,0,-5.249,96.924
0.214,0.908,-0.035,-1.77,-3.174,87.28
0.192,0.919,-0.028,-3.052,-2.625,78.979
0.181,0.915,-0.031,-3.906,-2.502,71.35
0.177,0.934,-0.025,-4.211,-1.77,64.087
0.175,0.952,-0.014,-2.93,-1.465,52.979
0.16,0.971,0.001,-1.709,-3.296,49.072
0.153,0.996,0.004,-0.183,-5.981,45.41
0.17,1.012,0,1.16,-8.85,42.114
0.175,1.023,-0.008,2.808,-10.803,40.222
0.164,1.033,-0.012,3.296,-11.23,39.795
0.165,1.025,-0.013,3.479,-10.925,40.283
0.168,1.011,-0.011,3.54,-10.132,41.077
0.155,0.998,-0.008,3.357,-9.399,40.649
0.135,0.986,-0.008,2.808,-8.728,38.33
0.121,0.976,-0.01,2.38,-7.996,34.302
0.108,0.972,-0.01,1.587,-6.714,29.053
0.086,0.963,-0.006,0.977,-4.883,22.766
0.075,0.965,-0.003,0.366,-3.235,16.602
0.077,0.974,-0.004,-0.366,-1.831,10.742
0.083,0.981,-0.013,-1.221,-0.488,5.615
0.088,0.99,-0.012,-1.648,0.854,1.709
0.096,0.997,-0.009,-1.77,2.258,-0.732
0.103,0.998,-0.008,-1.77,2.93,-2.197
0.109,0.997,-0.005,-1.404,2.991,-2.869
0.112,0.99,-0.004,-1.099,2.93,-3.052
0.113,0.981,-0.004,-0.305,2.625,-3.235
0.118,0.976,-0.003,0.305,1.892,-3.662
0.123,0.966,0.001,1.16,1.16,-4.517
0.122,0.963,0.001,1.831,0.488,-5.31
0.122,0.963,0,2.441,-0.427,-5.981
0.123,0.969,-0.008,3.113,-2.075,-5.31
0.124,0.973,-0.009,3.113,-2.197,-4.456
0.126,0.975,-0.007,2.93,-2.625,-2.991
0.126,0.968,-0.011,2.502,-2.93,-1.16
0.126,0.958,-0.014,1.77,-2.808,0.671
0.127,0.954,-0.015,1.282,-2.075,1.831
0.128,0.952,-0.013,0.793,-1.282,2.136
0.131,0.956,-0.01,0.305,-0.61,2.075
0.13,0.961,-0.011,-0.183,-0.244,2.258
0.126,0.96,-0.007,-0.366,0.366,2.869
0.123,0.965,-0.003,0.183,0.61,2.991
0.121,0.965,0,0.366,0.427,3.113
0.119,0.971,0.001,0.122,0,3.052
0.118,0.975,0,0.061,-0.488,3.296
0.115,0.975,0,0.244,-1.16,3.723
0.114,0.974,0,-0.122,-1.77,3.357
0.113,0.971,0.001,-0.061,-2.441,2.869
0.112,0.971,0,-0.244,-3.113,2.014
0.11,0.973,-0.005,-0.366,-3.418,1.038
0.108,0.975,-0.007,-0.488,-3.052,0.183
0.109,0.98,-0.007,-0.366,-2.38,-0.549
0.111,0.986,-0.005,-0.61,-1.953,-1.282
0.114,0.99,-0.006,-0.671,-1.648,-1.77
0.12,0.99,-0.01,-0.916,-1.038,-1.526
0.12,0.99,-0.008,-0.732,-0.854,-1.038
0.12,0.987,-0.009,-0.488,-0.488,-0.671
0.12,0.987,-0.01,-0.305,-0.366,-0.793
0.118,0.982,-0.01,0,-0.183,-1.16
0.115,0.981,-0.012,0.183,-0.244,-1.709
0.116,0.976,-0.013,0.061,0.244,-2.502
0.114,0.973,-0.013,0.305,0.488,-2.93
0.115,0.975,-0.014,0.244,0.732,-3.418
0.117,0.976,-0.013,0.305,1.221,-4.028
0.118,0.977,-0.013,0.183,1.587,-4.456
0.121,0.977,-0.012,0.183,1.648,-4.822
0.124,0.979,-0.011,0,1.587,-5.188
0.124,0.975,-0.009,0,1.465,-5.127
0.126,0.974,-0.007,-0.305,1.099,-4.944
0.126,0.969,-0.009,-0.244,0.916,-4.822
0.13,0.969,-0.01,-0.061,0.671,-4.517
0.132,0.967,-0.012,-0.122,0.183,-4.272
0.134,0.968,-0.013,0,-0.122,-4.272
0.136,0.965,-0.015,-0.122,-0.366,-4.333
0.138,0.965,-0.014,-0.244,-0.366,-4.395
0.138,0.964,-0.013,0,-0.244,-4.395
0.138,0.967,-0.013,0,-0.061,-4.456
0.139,0.966,-0.01,-0.122,-0.244,-5.005
0.14,0.967,-0.01,-0.366,-0.427,-5.005
0.142,0.97,-0.013,-0.244,-0.549,-5.127
0.144,0.972,-0.014,-0.244,-0.732,-5.127
0.147,0.972,-0.013,-0.366,-0.793,-5.066
0.147,0.97,-0.012,-0.549,-0.793,-4.761
0.146,0.967,-0.008,-0.671,-0.549,-4.211
0.147,0.966,-0.004,-0.732,-0.61,-3.662
0.152,0.97,-0.002,-0.549,-1.099,-3.418
0.157,0.973,-0.004,-0.61,-1.587,-3.296
0.159,0.977,-0.008,-0.427,-2.197,-3.052
0.161,0.976,-0.011,-0.427,-2.563,-2.625
0.158,0.978,-0.012,-0.488,-2.441,-2.075
0.156,0.978,-0.014,-0.488,-2.197,-1.526
0.154,0.974,-0.015,-0.793,-1.709,-1.038
0.151,0.97,-0.013,-0.916,-1.099,-0.732
0.152,0.971,-0.013,-0.793,-0.549,-0.488
0.156,0.965,-0.012,-0.671,-0.183,-0.427
0.157,0.961,-0.011,-0.671,0.305,-0.061
0.158,0.959,-0.01,-0.183,0.305,0.305
0.16,0.959,-0.013,0,0.366,0.488
0.159,0.962,-0.013,0.305,0.549,0.854
0.16,0.963,-0.016,0.732,0.793,1.099
0.16,0.965,-0.017,0.977,1.099,1.16
0.155,0.97,-0.015,0.854,1.709,0.61
0.151,0.971,-0.014,0.366,2.075,0.122
0.15,0.972,-0.011,0.183,2.441,-0.427
0.151,0.973,-0.009,-0.061,2.625,-0.793
0.147,0.978,-0.009,-0.366,2.258,-0.977
0.146,0.978,-0.007,-0.183,1.831,-1.16
0.634,0.941,-0.062,-1.892,7.324,19.531
0.657,0.961,-0.042,-0.427,9.521,32.532
0.635,0.966,-0.008,1.648,9.399,50.903
0.597,0.944,-0.005,2.625,5.798,72.388
0.584,0.89,-0.01,3.174,0.916,92.773
0.577,0.842,-0.01,4.7,-6.409,122.681
0.538,0.803,-0.035,4.333,-7.996,130.798
0.477,0.802,-0.034,3.723,-8.362,136.292
0.432,0.803,-0.03,2.93,-8.789,140.625
0.386,0.818,-0.03,2.136,-10.254,144.226
0.339,0.847,-0.037,1.465,-12.268,147.583
0.324,0.849,-0.052,0.122,-14.282,151.062
0.311,0.833,-0.055,-0.122,-15.32,153.564
0.286,0.819,-0.057,0.244,-16.296,153.87
0.265,0.809,-0.058,0.671,-17.09,150.452
0.245,0.803,-0.059,1.282,-17.578,143.616
0.224,0.798,-0.068,1.709,-17.761,133.606
0.188,0.794,-0.071,1.221,-16.479,120.239
0.128,0.806,-0.06,0.916,-13.306,104.858
0.096,0.839,-0.053,0.427,-10.315,88.623
0.106,0.884,-0.055,-1.038,-7.568,71.289
0.101,0.928,-0.044,-1.709,-4.456,52.856
0.074,0.972,-0.025,-2.014,-1.77,34.302
0.054,1.006,-0.012,-1.892,-0.916,17.822
0.045,1.03,-0.009,-1.526,-1.343,4.15
0.048,1.05,-0.014,-1.16,-1.77,-6.653
0.057,1.068,-0.011,-0.488,-1.465,-15.076
0.073,1.08,-0.014,0.305,-1.221,-20.569
0.09,1.083,0,1.465,-1.099,-23.01
0.111,1.083,0.001,2.686,-2.075,-22.888
0.13,1.07,-0.014,3.418,-3.662,-20.752
0.143,1.062,-0.016,3.906,-4.028,-17.395
0.14,1.054,-0.015,4.089,-3.601,-13.672
0.133,1.045,-0.012,4.15,-3.296,-10.193
0.131,1.033,-0.011,4.028,-3.296,-6.409
0.135,1.019,-0.015,3.906,-3.54,-2.686
0.144,1.001,-0.018,3.662,-3.479,0.916
0.149,0.985,-0.024,3.662,-3.479,4.089
0.147,0.967,-0.028,3.601,-2.686,6.409
0.143,0.955,-0.03,3.174,-1.221,7.507
0.142,0.944,-0.031,2.808,0.244,7.019
0.144,0.939,-0.027,2.258,1.709,5.92
0.147,0.937,-0.022,1.77,2.747,3.845
0.149,0.932,-0.016,1.221,3.235,1.587
0.151,0.937,-0.011,0.977,3.296,-1.038
0.154,0.933,-0.016,0.305,3.174,-3.235
0.156,0.932,-0.014,-0.183,3.174,-5.676
0.156,0.94,-0.008,-0.366,3.601,-8.179
0.158,0.948,-0.002,-0.427,3.235,-10.071
0.165,0.954,0,-0.122,2.319,-10.925
0.169,0.957,0,0.244,0.854,-10.925
0.169,0.957,0.001,1.16,-0.488,-10.498
0.165,0.956,0.002,2.197,-2.075,-10.01
0.168,0.961,0.001,2.93,-3.723,-9.583
0.173,0.965,-0.007,3.418,-5.127,-8.85
0.173,0.97,-0.01,3.784,-5.798,-7.446
0.17,0.977,-0.008,3.845,-5.493,-5.981
0.167,0.981,-0.001,3.418,-5.493,-4.028
0.171,0.987,-0.035,1.648,-5.31,-2.075
0.172,0.984,-0.037,-0.183,-2.075,0.854
0.169,0.972,0.001,-0.122,2.258,3.784
0.168,0.963,0.023,0.061,2.075,5.371
0.168,0.966,0.004,-0.366,-1.526,5.737
0.172,0.97,-0.007,-0.427,-3.357,6.287
0.171,0.972,-0.009,0.305,-2.991,7.263
0.165,0.973,-0.018,-0.183,-1.953,7.996
0.156,0.972,-0.022,-0.916,0.244,8.057
0.147,0.971,-0.01,-0.916,2.869,7.568
0.141,0.969,0.002,-0.854,3.906,6.653
0.14,0.973,0.005,-0.854,3.296,5.554
0.137,0.973,0.006,-0.488,2.197,4.272
0.138,0.969,0.005,-0.122,0.977,2.686
0.14,0.971,0.005,0.061,-0.122,0.854
0.143,0.973,-0.001,0.122,-1.16,-1.038
0.147,0.978,-0.005,-0.122,-1.465,-2.563
0.153,0.982,-0.007,-0.305,-1.404,-3.357
0.155,0.982,-0.009,-0.732,-1.038,-4.272
0.157,0.984,-0.008,-1.038,-0.671,-5.005
0.159,0.989,-0.006,-1.038,-0.671,-5.188
0.158,0.985,-0.007,-1.16,-0.977,-4.822
0.157,0.981,-0.01,-1.221,-1.404,-4.089
0.159,0.978,-0.016,-1.099,-1.465,-3.052
0.162,0.977,-0.019,-1.282,-1.282,-2.197
0.165,0.972,-0.02,-1.465,-0.854,-1.404
0.164,0.968,-0.019,-1.709,-0.183,-0.488
0.161,0.959,-0.015,-1.526,0.488,0.305
0.16,0.955,-0.012,-1.587,0.854,0.488
0.161,0.954,-0.01,-1.221,0.61,0.305
0.163,0.954,-0.01,-0.977,0,-0.122
0.165,0.955,-0.01,-0.61,-0.488,-0.793
0.166,0.958,-0.012,-0.122,-1.038,-1.282
0.165,0.96,-0.012,0,-1.282,-2.075
0.158,0.962,-0.013,0.488,-1.648,-2.197
0.159,0.967,-0.016,0.244,-1.343,-2.441
0.159,0.972,-0.014,-0.061,-0.793,-2.502
0.164,0.97,-0.014,-0.366,-0.61,-2.38
0.168,0.968,-0.01,-0.427,-0.61,-2.197
0.172,0.969,-0.011,-0.488,-0.732,-1.831
0.171,0.967,-0.013,-0.244,-1.038,-1.404
0.171,0.966,-0.012,-0.305,-1.282,-0.977
0.172,0.966,-0.016,-0.488,-1.343,-0.732
0.173,0.967,-0.016,-0.305,-1.038,-0.549
0.173,0.965,-0.017,-0.366,-0.427,-0.671
0.171,0.962,-0.016,-0.305,-0.061,-0.793
0.168,0.965,-0.018,-0.305,0.122,-1.16
0.166,0.97,-0.018,-0.488,0.732,-1.587
0.166,0.971,-0.018,-0.549,1.404,-1.587
0.168,0.972,-0.016,-0.732,1.892,-1.648
0.167,0.969,-0.013,-0.671,2.258,-1.709
0.166,0.967,-0.012,-0.732,2.441,-1.648
0.167,0.966,-0.012,-0.427,2.441,-1.77
0.169,0.966,-0.014,-0.671,1.892,-2.258
0.17,0.966,-0.016,-0.732,1.648,-2.869
0.17,0.964,-0.019,-0.854,1.709,-3.235
0.171,0.961,-0.017,-0.61,2.075,-3.723
0.167,0.969,-0.018,-0.427,2.747,-4.578
0.166,0.969,-0.017,-0.427,2.991,-4.7
0.168,0.972,-0.019,-0.366,3.235,-4.578
0.171,0.97,-0.017,-0.427,3.357,-4.517
0.499,0.995,-0.062,-0.244,15.015,28.748
0.517,0.997,-0.046,0.244,16.724,46.204
0.541,0.97,-0.029,3.906,16.357,69.336
0.537,0.942,-0.013,8.667,13.367,94.238
0.512,0.829,-0.019,14.587,2.625,139.771
0.464,0.769,-0.02,17.151,-2.563,155.151
0.366,0.71,-0.037,18.555,-7.446,164.062
0.275,0.682,-0.055,19.104,-10.925,167.664
0.252,0.71,-0.083,18.433,-12.695,165.466
0.249,0.741,-0.105,15.015,-11.78,156.433
0.209,0.77,-0.107,11.414,-7.507,143.433
0.163,0.812,-0.094,7.874,-2.197,127.747
0.115,0.846,-0.078,4.089,1.892,109.68
0.062,0.872,-0.069,0.549,4.883,89.783
0.034,0.912,-0.055,-2.869,7.751,70.19
0.022,0.957,-0.042,-4.944,10.315,52.246
0.015,0.999,-0.027,-5.493,12.268,37.537
0.008,1.016,-0.013,-5.188,12.573,26.367
0.008,1.039,-0.003,-4.211,10.925,17.456
0.01,1.065,0.006,-2.686,8.301,10.864
0.012,1.08,0.009,-0.488,4.7,7.202
0.025,1.095,0.005,1.343,1.16,4.578
0.044,1.101,0,2.869,-2.319,2.136
0.052,1.094,-0.003,3.784,-5.127,-0.977
0.045,1.088,-0.005,4.15,-6.775,-4.456
0.045,1.086,-0.008,4.089,-8.057,-7.874
0.047,1.084,-0.012,4.333,-8.667,-11.169
0.052,1.078,-0.014,4.15,-8.728,-13.489
0.057,1.073,-0.017,3.723,-8.85,-14.832
0.06,1.066,-0.018,3.052,-8.606,-14.832
0.065,1.052,-0.022,2.075,-7.996,-13.855
0.078,1.034,-0.024,0.977,-7.202,-11.719
0.096,1.016,-0.028,0.122,-6.47,-9.216
0.104,1.001,-0.032,-0.793,-5.066,-6.653
0.111,0.99,-0.036,-1.526,-3.54,-4.456
0.116,0.97,-0.04,-2.319,-1.77,-3.052
0.118,0.949,-0.039,-3.235,0.366,-2.38
0.117,0.935,-0.036,-3.723,1.831,-2.136
0.118,0.925,-0.032,-4.028,3.296,-2.625
0.124,0.922,-0.031,-4.211,4.15,-3.662
0.137,0.923,-0.031,-4.028,4.15,-5.371
0.144,0.926,-0.03,-3.723,3.784,-6.836
0.148,0.927,-0.029,-3.357,2.869,-8.057
0.149,0.932,-0.03,-2.563,1.831,-8.85
0.153,0.936,-0.034,-1.648,0.549,-9.46
0.154,0.941,-0.037,-0.854,-0.732,-9.521
0.158,0.949,-0.041,0.122,-1.892,-9.46
0.161,0.95,-0.042,1.038,-2.869,-8.85
0.16,0.953,-0.044,1.526,-3.479,-8.118
0.159,0.955,-0.044,1.831,-3.662,-6.714
0.159,0.955,-0.043,2.136,-3.967,-5.615
0.156,0.956,-0.041,2.258,-3.967,-4.211
0.152,0.954,-0.039,2.197,-4.333,-3.052
0.146,0.952,-0.039,2.075,-4.456,-2.075
0.146,0.952,-0.04,1.831,-4.517,-0.732
0.148,0.953,-0.041,1.648,-4.272,0.366
0.145,0.955,-0.041,1.343,-3.784,1.465
0.139,0.96,-0.04,1.099,-2.93,2.686
0.134,0.965,-0.038,0.549,-2.075,3.784
0.131,0.962,-0.035,-0.122,-1.038,4.822
0.128,0.964,-0.031,-0.427,-0.061,5.737
0.127,0.966,-0.026,-0.427,0.305,6.226
0.127,0.973,-0.023,-0.366,0.305,6.592
0.13,0.979,-0.024,-0.122,-0.061,6.958
0.134,0.983,-0.025,0.244,-0.427,6.958
0.131,0.984,-0.027,0.916,-0.61,6.531
0.125,0.984,-0.022,1.221,-0.854,5.615
0.121,0.989,-0.023,1.282,-0.793,4.639
0.122,0.996,-0.023,1.343,-0.854,3.296
0.12,1.001,-0.023,1.038,-1.038,1.892
0.117,1,-0.022,0.793,-1.099,0.977
0.119,0.999,-0.022,0.732,-1.221,0.305
0.122,0.995,-0.025,0.488,-1.404,-0.061
0.12,0.992,-0.027,0,-1.404,-0.366
0.121,0.992,-0.03,-0.366,-1.526,-0.732
0.124,0.992,-0.035,-0.854,-1.16,-1.526
0.127,0.99,-0.038,-1.526,-0.854,-2.258
0.127,0.984,-0.039,-1.953,-0.183,-2.747
0.125,0.974,-0.039,-2.319,0.244,-3.174
0.128,0.972,-0.04,-2.319,0.61,-3.723
0.128,0.97,-0.039,-2.136,1.038,-4.333
0.128,0.97,-0.038,-1.831,1.16,-4.761
0.127,0.967,-0.037,-1.587,0.977,-5.432
0.128,0.966,-0.034,-1.465,0.549,-5.737
0.132,0.965,-0.034,-0.977,-0.061,-5.554
0.137,0.964,-0.035,-0.549,-0.732,-5.676
0.138,0.964,-0.036,-0.305,-1.221,-5.554
0.138,0.964,-0.034,0.061,-1.648,-5.31
0.142,0.958,-0.031,0.488,-2.258,-5.005
0.148,0.958,-0.03,0.793,-2.686,-4.639
0.151,0.956,-0.029,1.038,-3.174,-4.211
0.151,0.956,-0.029,1.282,-3.479,-3.784
0.152,0.956,-0.031,1.404,-3.723,-3.601
0.157,0.957,-0.033,1.526,-3.784,-3.479
0.161,0.963,-0.033,1.831,-3.479,-2.93
0.162,0.964,-0.04,1.648,-3.113,-2.197
0.16,0.962,-0.04,1.282,-2.319,-1.526
0.16,0.956,-0.037,0.854,-0.854,-0.488
0.159,0.956,-0.032,1.038,0.427,0.305
0.157,0.964,-0.027,1.16,1.099,0.854
0.153,0.967,-0.026,1.282,1.343,1.404
0.149,0.977,-0.024,1.343,1.343,1.953
0.148,0.98,-0.023,1.343,0.854,2.563
0.15,0.976,-0.022,1.221,0.549,3.418
0.147,0.972,-0.023,1.343,0,4.15
0.146,0.97,-0.027,1.648,-0.488,4.639
0.146,0.966,-0.03,1.465,-0.366,4.517
0.144,0.965,-0.03,1.465,-0.061,3.906
0.139,0.969,-0.028,1.282,0.549,3.113
0.139,0.97,-0.027,1.16,0.916,2.258
0.14,0.973,-0.026,1.038,0.793,1.343
0.139,0.975,-0.026,0.977,0.793,0.488
0.134,0.985,-0.027,0.732,0.793,-0.183
0.133,0.99,-0.026,0.549,0.671,-0.488
0.135,0.991,-0.025,0.366,0.366,-0.488
0.135,0.99,-0.024,-0.183,-0.183,-0.244
0.136,0.986,-0.025,-0.61,-0.793,0.122
0.138,0.978,-0.026,-0.854,-1.465,0.549
0.141,0.971,-0.026,-0.916,-1.892,0.61
0.57,0.974,-0.065,-3.296,9.949,30.151
0.558,0.97,-0.051,-2.258,11.047,45.532
0.54,0.939,-0.032,-0.305,10.62,63.965
0.517,0.896,-0.024,2.014,8.423,81.665
0.502,0.863,-0.039,2.808,4.944,96.802
0.489,0.827,-0.047,4.089,2.686,109.131
0.449,0.8,-0.042,5.005,1.77,118.347
0.362,0.781,-0.041,5.615,1.16,123.779
0.288,0.767,-0.058,5.127,-0.183,127.258
0.272,0.786,-0.076,4.517,-1.343,128.845
0.275,0.83,-0.097,3.662,-1.709,127.502
0.244,0.859,-0.099,2.319,-0.366,123.413
0.19,0.88,-0.091,1.221,1.16,118.53
0.164,0.887,-0.087,0,1.831,112.488
0.17,0.885,-0.08,-1.038,2.014,105.53
0.152,0.892,-0.077,-1.099,2.258,97.961
0.125,0.886,-0.07,-0.854,2.38,90.027
0.105,0.874,-0.062,-0.183,2.136,82.153
0.088,0.887,-0.059,1.587,1.526,73.364
0.069,0.911,-0.059,3.357,0.793,61.707
0.061,0.94,-0.066,4.15,0,47.424
0.055,0.976,-0.071,4.578,-0.061,32.166
0.042,1.008,-0.068,4.578,0.916,16.541
0.031,1.039,-0.061,3.906,2.38,2.747
0.03,1.074,-0.05,3.174,4.089,-8.179
0.034,1.098,-0.038,2.563,5.493,-16.479
0.037,1.11,-0.024,2.197,5.737,-21.362
0.041,1.114,-0.014,2.075,4.15,-23.01
0.053,1.111,-0.01,2.014,2.075,-22.339
0.065,1.101,-0.012,2.686,-0.122,-20.325
0.082,1.086,-0.014,2.93,-2.563,-17.151
0.097,1.066,-0.021,2.686,-4.944,-13.733
0.107,1.048,-0.033,2.563,-6.653,-10.193
0.113,1.027,-0.039,2.136,-6.958,-7.324
0.11,1.01,-0.045,1.465,-6.104,-5.127
0.106,0.999,-0.049,0.488,-5.066,-3.601
0.11,0.985,-0.054,-0.61,-3.601,-2.319
0.126,0.973,-0.055,-1.343,-1.892,-1.221
0.136,0.962,-0.056,-2.014,-0.671,-0.183
0.139,0.957,-0.056,-2.38,0,0.488
0.139,0.944,-0.051,-2.258,0.366,0.488
0.136,0.93,-0.051,-2.014,0.061,-0.061
0.138,0.922,-0.055,-1.709,-0.427,-1.526
0.146,0.919,-0.06,-1.709,-0.488,-3.845
0.154,0.921,-0.062,-1.648,0.061,-6.165
0.158,0.925,-0.061,-1.77,0.671,-8.423
0.161,0.927,-0.057,-1.648,1.465,-10.376
0.165,0.932,-0.054,-1.526,1.77,-11.963
0.169,0.937,-0.051,-1.099,1.526,-12.512
0.167,0.941,-0.048,-0.366,0.793,-12.695
0.168,0.943,-0.047,0.671,-0.427,-12.451
0.167,0.949,-0.045,1.831,-1.648,-11.963
0.165,0.952,-0.045,2.441,-3.052,-11.414
0.165,0.953,-0.048,3.052,-3.845,-10.437
0.164,0.957,-0.05,3.357,-4.395,-9.216
0.163,0.961,-0.048,3.479,-4.639,-7.996
0.164,0.964,-0.049,3.418,-4.7,-6.348
0.17,0.97,-0.047,3.235,-4.761,-4.639
0.172,0.973,-0.047,2.747,-4.517,-3.052
0.173,0.971,-0.047,2.319,-4.272,-1.099
0.173,0.97,-0.046,1.831,-3.906,1.099
0.17,0.97,-0.048,1.343,-3.662,3.113
0.169,0.971,-0.05,0.854,-3.052,4.822
0.165,0.97,-0.05,0.244,-2.319,5.92
0.159,0.968,-0.047,-0.305,-1.282,6.592
0.153,0.964,-0.042,-0.732,-0.366,6.653
0.151,0.964,-0.037,-1.099,0.183,6.348
0.152,0.969,-0.034,-1.404,0.061,5.554
0.155,0.974,-0.036,-1.343,-0.244,4.517
0.159,0.978,-0.036,-1.282,-0.61,3.418
0.16,0.986,-0.038,-1.099,-0.854,2.441
0.161,0.989,-0.042,-0.916,-0.916,1.953
0.161,0.99,-0.044,-0.916,-1.221,1.343
0.161,0.989,-0.047,-0.732,-1.404,0.854
0.158,0.987,-0.049,-0.488,-1.099,0.793
0.158,0.983,-0.05,-0.366,-0.671,0.427
0.159,0.979,-0.051,-0.244,-0.122,0.122
0.157,0.975,-0.052,-0.183,0.244,0.061
0.156,0.972,-0.053,-0.122,0.427,-0.244
0.155,0.969,-0.053,-0.122,0.854,-0.61
0.155,0.965,-0.054,-0.244,1.099,-0.977
0.153,0.964,-0.054,-0.366,1.282,-1.343
0.152,0.962,-0.056,-0.732,1.709,-1.648
0.154,0.964,-0.056,-0.977,1.892,-2.014
0.157,0.964,-0.055,-1.038,2.258,-2.136
0.158,0.961,-0.053,-1.221,2.441,-2.258
0.156,0.961,-0.05,-0.977,2.319,-2.502
0.154,0.96,-0.05,-0.793,1.953,-2.747
0.156,0.961,-0.05,-0.732,1.343,-2.747
0.163,0.963,-0.052,-0.244,0.854,-2.563
0.164,0.965,-0.052,0.366,0.366,-2.319
0.16,0.963,-0.049,0.732,0.122,-2.014
0.156,0.958,-0.047,0.916,-0.183,-1.587
0.157,0.957,-0.044,1.343,-0.732,-1.343
0.16,0.959,-0.042,1.831,-1.221,-1.221
0.161,0.959,-0.042,1.953,-1.77,-1.343
0.163,0.962,-0.042,2.136,-2.319,-1.465
0.164,0.965,-0.043,1.892,-2.686,-1.648
0.166,0.97,-0.045,1.831,-2.686,-1.892
0.167,0.973,-0.048,1.465,-2.563,-1.77
0.171,0.976,-0.049,1.282,-2.563,-1.77
0.172,0.979,-0.05,0.854,-2.014,-1.465
0.169,0.978,-0.051,0.61,-1.465,-0.854
0.169,0.975,-0.05,0.122,-1.038,-0.183
0.17,0.976,-0.049,-0.122,-0.427,0.549
0.169,0.969,-0.049,-0.183,0,1.221
0.169,0.965,-0.049,-0.061,0.183,1.526
0.169,0.964,-0.049,-0.122,0.183,1.709
0.168,0.961,-0.049,0,0.183,1.77
0.166,0.96,-0.05,0.183,0.244,1.648
0.166,0.962,-0.05,0.427,0.305,1.465
0.164,0.962,-0.049,0.732,0.427,1.282
0.162,0.964,-0.048,0.854,0.366,0.916
0.162,0.964,-0.048,1.099,0.488,0.488
0.162,0.964,-0.047,1.038,0.366,0
0.164,0.965,-0.047,1.099,0.244,-0.427
0.166,0.965,-0.047,1.16,0,-0.549
0.165,0.969,-0.047,1.099,0,-0.977
0.166,0.97,-0.048,0.793,-0.061,-1.282
