aX,aY,aZ,gX,gY,gZ,gesture
0.099,1.658,0.412,94.116,-36.255,-26.062,1
0.078,1.196,0.562,127.319,-26.978,-42.603,1
0.155,0.714,0.749,139.648,-13,-47.668,1
0.217,0.5,0.919,141.418,-4.578,-50.903,1
0.232,0.435,0.878,136.108,-1.587,-59.875,1
0.254,0.392,0.82,123.108,-0.244,-69.153,1
0.271,0.46,0.783,106.934,1.038,-75.134,1
0.277,0.413,0.666,97.9,1.099,-79.102,1
0.31,0.163,0.559,84.106,1.099,-78.613,1
0.38,0.129,0.455,62.927,-1.709,-71.716,1
0.382,-0.165,0.445,49.133,-2.075,-59.998,1
0.363,-0.26,0.394,37.964,5.554,-45.776,1
0.496,-0.166,0.126,46.631,17.456,-31.311,1
0.709,-0.321,0.074,44.861,21.118,-19.47,1
0.831,-0.513,0.245,24.109,7.874,2.747,1
0.688,-0.602,0.541,-14.465,-5.92,37.72,1
0.602,-0.356,0.762,-60.425,-9.399,75.256,1
0.569,-0.048,0.92,-93.262,-5.798,100.403,1
0.477,0.289,1.002,-109.314,1.282,114.014,1
0.416,0.445,1.008,-113.77,10.62,122.009,1
0.372,0.565,0.973,-124.756,21.606,130.737,1
0.368,0.697,0.82,-132.568,30.457,137.39,1
0.352,0.782,0.586,-153.809,34.241,137.878,1
0.326,1.161,0.4,-182.19,33.264,136.597,1
0.322,1.448,0.259,-178.894,30.334,127.808,1
0.28,1.447,0.091,-155.701,26.917,114.441,1
0.23,1.401,0,-136.963,21.362,99.121,1
0.177,1.565,-0.043,-118.164,15.503,81.848,1
0.17,1.784,-0.045,-82.153,10.803,59.082,1
0.145,1.917,-0.007,-34.18,7.751,29.968,1
0.136,1.928,0.057,14.893,6.226,0.732,1
0.132,1.753,0.154,55.542,4.517,-24.17,1
0.133,1.453,0.256,80.139,2.563,-42.969,1
0.15,1.189,0.383,87.341,0.061,-56.519,1
0.187,0.974,0.496,83.923,-1.953,-67.322,1
0.22,0.728,0.613,75.317,-3.296,-74.158,1
0.237,0.58,0.687,61.523,-3.662,-76.111,1
0.323,0.435,0.697,44.128,-6.165,-74.524,1
0.432,0.229,0.735,27.71,-8.362,-67.688,1
0.456,0.291,0.731,20.203,-10.132,-59.021,1
0.442,0.432,0.694,29.358,-11.414,-56.458,1
0.467,0.511,0.665,51.025,-10.376,-54.81,1
0.497,0.504,0.624,76.782,-7.996,-50.11,1
0.493,0.394,0.58,95.642,-4.761,-40.588,1
0.49,0.31,0.565,102.417,-0.366,-28.32,1
0.498,0.306,0.565,97.961,2.93,-16.785,1
0.497,0.35,0.555,81.909,4.578,-8.362,1
0.491,0.377,0.534,56.03,4.089,-2.319,1
0.486,0.396,0.495,26.123,2.38,4.944,1
0.462,0.45,0.46,-3.113,0.122,11.658,1
0.452,0.521,0.432,-29.358,-2.319,17.029,1
0.447,0.579,0.416,-50.903,-5.127,20.935,1
0.439,0.644,0.424,-67.81,-7.874,23.682,1
0.433,0.739,0.443,-75.5,-10.193,25.452,1
0.421,0.8,0.452,-72.51,-11.353,25.269,1
0.417,0.845,0.467,-64.514,-11.414,23.865,1
0.412,0.896,0.483,-52.734,-10.986,21.667,1
0.405,0.949,0.505,-37.292,-10.132,18.005,1
0.396,0.998,0.525,-20.508,-8.85,13.062,1
0.379,1.014,0.534,-4.211,-7.69,7.324,1
0.378,1.007,0.536,7.935,-6.409,1.648,1
0.379,0.968,0.532,16.724,-4.7,-3.601,1
0.377,0.877,0.514,21.179,-4.089,-7.69,1
0.386,0.803,0.497,20.63,-3.906,-10.681,1
0.406,0.75,0.489,16.357,-4.333,-12.451,1
0.412,0.696,0.485,10.498,-4.944,-13.245,1
0.425,0.665,0.474,5.066,-5.859,-13,1
0.447,0.651,0.477,2.197,-6.592,-11.414,1
0.454,0.628,0.484,1.587,-6.958,-9.216,1
0.463,0.61,0.493,1.831,-6.592,-6.653,1
0.471,0.606,0.512,2.075,-6.47,-3.662,1
0.466,0.612,0.532,1.831,-6.531,-1.16,1
0.459,0.61,0.533,1.953,-6.47,1.465,1
0.452,0.612,0.536,1.648,-6.042,4.089,1
0.437,0.638,0.541,0.61,-5.493,6.348,1
0.422,0.673,0.543,0.305,-4.822,7.812,1
0.412,0.71,0.543,0.183,-4.15,9.033,1
0.404,0.742,0.541,-1.465,-3.479,9.644,1
0.394,0.747,0.542,-4.028,-2.869,9.644,1
0.381,0.762,0.541,-7.019,-2.258,9.155,1
0.38,0.786,0.533,-9.033,-1.831,7.996,1
0.388,0.797,0.523,-9.705,-1.587,6.348,1
0.395,0.796,0.511,-9.399,-1.16,4.944,1
0.402,0.794,0.501,-7.996,-0.793,3.418,1
0.407,0.791,0.498,-5.737,-0.61,2.075,1
0.404,0.773,0.488,-2.441,-0.244,1.282,1
0.411,0.756,0.474,-0.305,0.305,0.488,1
0.42,0.734,0.466,0.61,0.854,0.061,1
0.421,0.72,0.462,1.465,1.099,-0.122,1
0.42,0.719,0.466,2.136,0.732,0.366,1
0.412,0.708,0.484,2.319,0.427,1.099,1
0.405,0.703,0.505,1.343,0.244,1.831,1
0.398,0.709,0.519,-0.427,0,2.686,1
0.398,0.716,0.534,-2.014,-0.061,3.296,1
0.395,0.721,0.545,-3.357,-0.122,4.089,1
0.391,0.722,0.548,-3.784,0.122,4.578,1
0.392,0.721,0.542,-4.272,0.366,4.761,1
0.397,0.732,0.533,-4.944,0.671,4.639,1
0.397,0.745,0.521,-4.761,0.977,4.395,1
0.398,0.75,0.504,-4.089,1.465,4.089,1
0.395,0.754,0.487,-2.563,1.709,3.723,1
0.392,0.75,0.469,-1.343,2.075,3.052,1
0.394,0.743,0.459,0.122,2.319,2.441,1
0.393,0.743,0.449,2.136,2.38,1.953,1
0.398,0.751,0.438,4.211,2.197,1.465,1
0.407,0.75,0.437,6.348,1.587,1.343,1
0.407,0.747,0.446,7.202,1.038,1.16,1
0.404,0.747,0.465,7.629,0.305,0.977,1
0.399,0.748,0.485,7.996,-0.305,1.038,1
0.398,0.743,0.509,8.057,-0.793,1.221,1
0.393,0.735,0.543,7.019,-0.916,1.587,1
0.383,0.735,0.568,5.249,-1.038,1.709,1
0.377,0.742,0.584,3.662,-0.854,1.343,1
0.38,0.734,0.578,1.953,-0.305,0.977,1
0.388,0.726,0.568,0.366,0.427,0.916,1
0.392,0.723,0.55,-0.488,1.099,0.916,1
0.396,0.719,0.53,-0.244,1.282,0.732,1
0.402,0.724,0.503,0.183,1.16,0.977,1
0.416,0.723,0.482,0.732,1.038,1.282,1
0.028,2.055,0.138,-141.052,2.136,71.594,1
0.024,2.18,0.098,-94.604,-2.014,37.231,1
0.052,2.168,0.052,-42.786,-4.395,3.052,1
0.091,2.043,0.041,5.249,-5.676,-30.945,1
0.106,1.865,0.061,45.105,-7.568,-62.317,1
0.12,1.66,0.105,73.914,-10.315,-87.646,1
0.159,1.427,0.156,94.91,-13.245,-107.239,1
0.184,1.268,0.253,106.567,-15.198,-121.094,1
0.177,0.837,0.285,109.619,-14.893,-130.249,1
0.152,0.245,0.485,104.675,-14.404,-129.517,1
0.317,0.222,0.6,116.15,-16.113,-119.69,1
0.367,-0.064,0.693,130.798,-14.282,-116.089,1
0.441,-0.298,0.683,140.625,-13.672,-107.483,1
0.517,-0.196,0.487,144.592,-9.521,-93.201,1
0.562,-0.297,0.412,136.475,-6.653,-77.82,1
0.507,-0.217,0.314,141.174,-3.052,-54.626,1
0.629,-0.278,0.33,148.743,3.296,-29.785,1
0.675,-0.578,0.478,127.319,-1.587,-6.653,1
0.624,-0.64,0.57,73.486,-10.01,21.851,1
0.616,-0.476,0.616,8.911,-13.855,50.171,1
0.588,-0.277,0.679,-59.326,-17.09,70.557,1
0.519,0.016,0.823,-122.009,-16.724,85.876,1
0.342,0.333,0.976,-169.495,-11.047,95.825,1
0.251,0.57,0.911,-203.979,-4.517,103.149,1
0.291,0.682,0.86,-233.948,4.395,110.718,1
0.375,0.776,0.698,-235.779,14.526,118.225,1
0.396,0.85,0.554,-216.431,20.935,117.249,1
0.415,0.927,0.395,-183.167,25.94,110.901,1
0.467,0.973,0.177,-155.762,28.809,103.943,1
0.404,1.159,0.023,-127.747,25.94,97.534,1
0.341,1.39,-0.051,-97.839,17.639,85.022,1
0.272,1.55,-0.092,-75.623,6.775,68.481,1
0.192,1.816,-0.096,-49.988,-0.916,50.11,1
0.127,2.058,-0.067,-8.423,-1.892,26.794,1
0.108,2.146,-0.029,39.063,-1.831,-0.549,1
0.127,2.125,0.049,76.904,-6.104,-28.259,1
0.141,1.895,0.207,102.722,-11.047,-53.955,1
0.086,1.496,0.399,114.258,-14.038,-74.341,1
0.089,1.107,0.56,111.816,-13.977,-89.539,1
0.14,0.817,0.674,94.238,-12.756,-100.525,1
0.209,0.654,0.691,67.993,-14.893,-108.948,1
0.332,0.525,0.644,52.307,-18.677,-113.281,1
0.349,0.303,0.685,47.607,-20.874,-112.183,1
0.435,0.273,0.618,54.382,-20.142,-107.727,1
0.513,0.228,0.559,79.285,-18.127,-100.708,1
0.526,0.264,0.472,105.652,-15.808,-92.285,1
0.582,0.274,0.395,128.784,-12.268,-81.604,1
0.59,0.194,0.346,152.161,-8.789,-65.918,1
0.629,0.026,0.346,167.786,-7.324,-45.715,1
0.65,-0.171,0.381,153.503,-7.996,-25.146,1
0.634,-0.166,0.478,106.079,-12.817,-5.188,1
0.605,-0.052,0.551,47.668,-18.494,11.23,1
0.567,0.079,0.606,-4.7,-23.621,22.827,1
0.478,0.305,0.695,-50.354,-25.391,30.64,1
0.384,0.609,0.797,-81.787,-22.888,33.081,1
0.363,0.851,0.814,-92.59,-18.005,31.067,1
0.387,0.877,0.798,-90.21,-11.841,29.358,1
0.411,0.833,0.737,-83.557,-5.188,28.931,1
0.427,0.773,0.662,-72.266,-0.061,27.039,1
0.447,0.748,0.576,-60.73,3.113,23.621,1
0.468,0.773,0.517,-49.438,3.784,19.226,1
0.477,0.833,0.476,-38.086,3.235,14.099,1
0.476,0.875,0.432,-24.414,2.625,8.606,1
0.476,0.862,0.403,-11.353,2.136,4.517,1
0.483,0.884,0.387,-1.343,1.038,2.197,1
0.482,0.9,0.381,9.155,-0.793,-0.122,1
0.476,0.86,0.399,18.127,-2.686,-2.197,1
0.455,0.785,0.445,21.24,-4.517,-3.113,1
0.434,0.728,0.483,18.005,-6.165,-3.601,1
0.43,0.7,0.514,10.925,-7.324,-4.028,1
0.43,0.684,0.547,2.625,-8.423,-4.272,1
0.426,0.674,0.57,-5.066,-9.155,-4.456,1
0.427,0.662,0.577,-11.78,-9.338,-4.333,1
0.436,0.665,0.573,-14.587,-8.972,-4.272,1
0.446,0.647,0.565,-12.207,-7.812,-4.211,1
0.451,0.615,0.558,-7.812,-6.287,-3.479,1
0.451,0.594,0.551,-3.479,-5.188,-2.747,1
0.459,0.587,0.548,-0.122,-4.517,-1.709,1
0.467,0.589,0.559,2.075,-4.028,-0.244,1
0.462,0.598,0.567,2.747,-3.418,0.793,1
0.455,0.598,0.575,3.479,-2.808,1.77,1
0.444,0.593,0.575,4.089,-2.38,3.418,1
0.437,0.608,0.568,3.479,-1.587,4.578,1
0.438,0.631,0.562,1.831,-0.671,5.554,1
0.444,0.654,0.559,1.221,0.122,6.47,1
0.443,0.678,0.557,1.099,0.61,7.019,1
0.443,0.702,0.542,2.502,1.465,6.958,1
0.441,0.705,0.535,4.272,1.953,6.775,1
0.44,0.712,0.536,4.7,2.502,6.409,1
0.438,0.723,0.529,4.333,2.625,5.92,1
0.44,0.737,0.527,3.723,2.502,5.554,1
0.442,0.752,0.522,3.235,2.625,4.944,1
0.447,0.759,0.517,3.052,2.563,4.211,1
0.453,0.764,0.522,3.052,2.441,3.357,1
0.45,0.765,0.528,3.052,2.075,2.686,1
0.446,0.757,0.53,3.845,1.77,1.953,1
0.444,0.744,0.531,4.211,1.587,1.343,1
0.444,0.72,0.54,3.174,1.465,0.732,1
0.44,0.692,0.548,1.282,1.16,0.549,1
0.441,0.674,0.552,-0.977,1.038,0.549,1
0.448,0.659,0.556,-2.625,0.916,0.916,1
0.446,0.656,0.556,-3.479,0.793,1.282,1
0.442,0.658,0.549,-3.235,0.793,1.465,1
0.45,0.666,0.548,-2.625,1.038,1.404,1
0.452,0.667,0.554,-1.77,1.282,1.709,1
0.443,0.669,0.561,-1.709,0.854,2.319,1
0.434,0.672,0.562,-1.038,0.854,2.808,1
0.435,0.671,0.555,-0.122,0.977,2.808,1
0.435,0.679,0.547,0.427,0.977,2.686,1
0.433,0.687,0.537,0.427,0.916,2.563,1
0.433,0.695,0.525,0.488,0.793,2.258,1
0.437,0.696,0.517,0.977,0.488,1.77,1
0.438,0.696,0.512,1.648,0.183,1.709,1
0.442,0.701,0.511,2.319,-0.122,1.587,1
0.443,0.703,0.514,3.357,-0.549,1.099,1
0.444,0.697,0.521,4.395,-0.793,0.793,1
0.446,0.692,0.533,4.7,-0.916,0.549,1
0.445,0.691,0.545,4.089,-1.221,0.244,1
0.438,0.683,0.551,3.052,-1.038,-0.061,1
0.216,1.914,0.609,-88.318,-1.282,23.132,1
0.214,1.823,0.576,-50.232,1.038,-1.038,1
0.242,1.569,0.576,-1.648,4.15,-23.254,1
0.287,1.255,0.547,39.246,6.714,-41.687,1
0.297,0.97,0.512,61.401,4.7,-54.626,1
0.306,0.704,0.529,71.899,-0.671,-65.735,1
0.335,0.455,0.516,81.238,-6.042,-72.632,1
0.376,0.244,0.459,90.393,-12.695,-74.646,1
0.428,0.172,0.431,97.778,-18.616,-71.96,1
0.487,0.162,0.433,107.788,-20.508,-66.895,1
0.51,0.085,0.479,119.995,-20.264,-58.899,1
0.516,0.025,0.551,127.686,-21.179,-48.401,1
0.494,-0.009,0.59,125.61,-19.47,-35.339,1
0.495,-0.159,0.651,110.962,-15.503,-21.179,1
0.559,-0.349,0.756,78.613,-13.672,-4.883,1
0.549,-0.45,0.88,29.602,-19.226,12.695,1
0.509,-0.332,0.972,-32.288,-20.935,29.602,1
0.433,-0.011,1.031,-96.069,-18.921,40.283,1
0.358,0.367,1.043,-145.813,-13,45.105,1
0.364,0.558,0.998,-180.542,-5.676,47.424,1
0.383,0.439,0.895,-206.421,1.038,52.124,1
0.414,0.281,0.742,-231.628,7.996,61.401,1
0.45,0.361,0.589,-253.54,13.184,68.848,1
0.5,0.521,0.506,-259.155,15.259,70.251,1
0.518,0.669,0.469,-240.784,16.846,69.458,1
0.535,0.818,0.426,-203.369,19.714,68.237,1
0.513,0.953,0.361,-154.602,22.339,65.979,1
0.476,1.073,0.284,-106.079,24.475,63.049,1
0.431,1.158,0.186,-57.434,25.208,57.678,1
0.394,1.214,0.109,-10.62,23.499,50.354,1
0.367,1.253,0.084,27.405,19.714,40.222,1
0.348,1.287,0.104,57.251,13.428,27.039,1
0.309,1.351,0.16,78.491,5.615,11.902,1
0.29,1.388,0.234,92.224,-0.854,-3.418,1
0.292,1.289,0.326,97.351,-5.615,-15.869,1
0.301,1.135,0.423,93.994,-8.972,-23.987,1
0.307,0.984,0.521,84.473,-12.024,-29.724,1
0.319,0.857,0.621,68.054,-15.259,-34.18,1
0.323,0.729,0.707,49.194,-18.188,-37.354,1
0.299,0.541,0.749,31.494,-20.264,-40.161,1
0.306,0.445,0.757,17.517,-21.057,-41.321,1
0.354,0.433,0.742,9.888,-21.667,-41.443,1
0.391,0.356,0.737,8.057,-21.423,-38.757,1
0.425,0.382,0.729,12.756,-19.409,-33.325,1
0.446,0.339,0.735,22.949,-16.479,-28.381,1
0.472,0.402,0.698,34.302,-13.306,-23.56,1
0.466,0.36,0.668,44.434,-10.803,-20.02,1
0.46,0.364,0.647,46.814,-7.751,-14.404,1
0.455,0.376,0.635,43.884,-4.883,-7.629,1
0.463,0.395,0.614,37.048,-2.258,-2.136,1
0.448,0.415,0.607,22.888,-0.793,3.357,1
0.431,0.473,0.613,3.052,-0.488,7.996,1
0.42,0.542,0.61,-15.564,-0.671,10.986,1
0.411,0.615,0.605,-32.532,-1.587,13.062,1
0.404,0.693,0.603,-41.87,-1.831,13.672,1
0.396,0.741,0.6,-40.161,-1.465,12.756,1
0.397,0.782,0.596,-31.982,-0.61,11.536,1
0.407,0.829,0.597,-20.874,0.305,9.338,1
0.415,0.849,0.588,-7.202,1.099,6.042,1
0.417,0.839,0.575,5.371,1.404,2.38,1
0.419,0.83,0.566,15.991,1.709,-0.916,1
0.43,0.798,0.567,23.926,1.709,-3.357,1
0.442,0.76,0.567,26.917,1.404,-5.31,1
0.455,0.71,0.561,25.757,0.732,-6.714,1
0.455,0.66,0.562,20.264,-0.427,-7.019,1
0.45,0.636,0.57,10.986,-1.587,-6.653,1
0.446,0.632,0.578,1.587,-3.357,-6.226,1
0.446,0.622,0.585,-5.737,-4.333,-5.249,1
0.441,0.61,0.621,-12.146,-5.432,-3.845,1
0.426,0.605,0.655,-15.991,-5.859,-2.625,1
0.417,0.611,0.681,-15.32,-5.615,-1.587,1
0.424,0.619,0.678,-10.681,-4.333,-0.977,1
0.426,0.604,0.665,-3.357,-2.136,-1.038,1
0.427,0.565,0.651,2.686,0,-0.61,1
0.432,0.557,0.631,5.737,1.038,0.122,1
0.436,0.564,0.609,6.531,1.282,0.61,1
0.431,0.569,0.588,6.531,1.16,1.343,1
0.423,0.575,0.572,6.836,0.977,2.319,1
0.418,0.585,0.558,7.08,0.854,3.113,1
0.42,0.601,0.54,6.775,0.549,3.54,1
0.422,0.607,0.532,6.531,0.244,3.784,1
0.422,0.62,0.538,6.836,-0.305,4.456,1
0.419,0.635,0.565,6.531,-1.038,4.639,1
0.415,0.646,0.607,5.615,-2.136,5.005,1
0.409,0.665,0.651,4.211,-3.052,5.188,1
0.405,0.696,0.682,3.479,-3.601,4.761,1
0.399,0.708,0.699,5.005,-3.357,3.845,1
0.393,0.698,0.704,6.531,-2.319,2.808,1
0.393,0.689,0.696,6.958,-0.427,2.014,1
0.403,0.666,0.67,6.592,1.16,0.732,1
0.421,0.647,0.648,3.601,2.014,0.122,1
0.431,0.634,0.625,-0.854,2.197,0.122,1
0.439,0.636,0.606,-4.944,1.77,0.366,1
0.444,0.637,0.59,-7.202,1.282,0.793,1
0.447,0.642,0.576,-7.568,1.282,1.099,1
0.447,0.641,0.563,-6.897,1.16,1.526,1
0.444,0.646,0.566,-6.104,1.16,1.953,1
0.436,0.648,0.576,-5.554,0.732,2.747,1
0.428,0.647,0.586,-4.883,0.183,3.174,1
0.424,0.659,0.599,-3.967,-0.183,3.357,1
0.424,0.676,0.601,-1.77,-0.488,3.296,1
0.423,0.671,0.603,1.648,-0.427,2.686,1
0.419,0.66,0.615,3.418,-0.061,2.136,1
0.415,0.653,0.626,3.357,0.122,1.892,1
0.411,0.65,0.63,2.319,0.061,1.526,1
0.411,0.645,0.628,1.221,-0.061,1.404,1
0.415,0.638,0.626,0.122,0.183,1.465,1
0.417,0.631,0.627,-0.916,0.305,1.282,1
0.416,0.625,0.628,-2.014,0.305,1.526,1
0.414,0.633,0.621,-2.93,0.244,1.709,1
0.42,0.635,0.606,-2.625,0.366,1.587,1
0.422,0.633,0.595,-2.258,0.61,1.526,1
0.425,0.635,0.586,-2.075,0.732,1.648,1
0.422,0.64,0.584,-1.709,0.366,1.648,1
0.417,0.656,0.591,-1.526,0.183,1.465,1
0.409,0.667,0.596,-0.549,-0.488,1.282,1
0.404,0.664,0.602,0.427,-0.793,1.038,1
0.401,0.652,0.606,0.916,-0.916,0.427,1
0.403,0.648,0.608,0.488,-0.793,0.061,1
0.225,1.918,0.161,-8.179,-5.066,-5.615,1
0.261,1.862,0.218,43.457,-1.831,-26.001,1
0.269,1.534,0.326,87.83,1.587,-43.335,1
0.263,1.196,0.426,104.553,2.136,-55.725,1
0.269,0.946,0.489,99.121,-0.061,-64.209,1
0.307,0.731,0.515,89.966,-3.357,-69.641,1
0.32,0.629,0.565,78.552,-4.639,-72.021,1
0.345,0.663,0.619,67.505,-5.798,-73.73,1
0.361,0.659,0.645,63.354,-7.629,-75.378,1
0.37,0.565,0.669,60.852,-8.667,-75.623,1
0.408,0.541,0.62,62.805,-10.071,-73.242,1
0.44,0.382,0.591,73.303,-11.047,-68.542,1
0.49,0.213,0.531,88.684,-10.742,-59.998,1
0.527,0.142,0.553,101.379,-10.132,-49.683,1
0.53,0.153,0.555,104.187,-10.193,-40.71,1
0.502,0.19,0.579,96.619,-10.864,-31.555,1
0.501,0.253,0.602,85.999,-12.024,-20.63,1
0.501,0.249,0.623,74.646,-12.817,-10.559,1
0.475,0.177,0.672,57.678,-12.024,-1.038,1
0.447,0.195,0.748,32.654,-9.949,9.033,1
0.408,0.354,0.811,6.104,-7.202,16.235,1
0.38,0.542,0.821,-13.916,-3.357,17.639,1
0.383,0.67,0.796,-27.405,0.488,16.235,1
0.391,0.721,0.747,-33.63,3.54,15.076,1
0.395,0.74,0.69,-35.522,6.104,13.306,1
0.413,0.772,0.621,-33.936,7.385,10.559,1
0.434,0.779,0.57,-27.222,7.568,7.019,1
0.447,0.738,0.54,-20.02,6.958,4.089,1
0.459,0.711,0.514,-16.968,5.676,2.197,1
0.474,0.711,0.498,-14.832,3.479,0.366,1
0.484,0.727,0.489,-12.939,1.099,-1.282,1
0.483,0.74,0.488,-9.521,-1.465,-2.93,1
0.474,0.724,0.507,-5.066,-3.723,-4.089,1
0.465,0.702,0.54,-0.854,-5.127,-4.517,1
0.457,0.67,0.579,3.113,-6.165,-4.517,1
0.453,0.632,0.617,4.517,-6.897,-4.395,1
0.449,0.612,0.64,4.7,-7.263,-4.272,1
0.447,0.597,0.659,3.845,-7.629,-4.028,1
0.441,0.591,0.671,2.075,-7.751,-3.357,1
0.435,0.586,0.672,0,-7.263,-3.052,1
0.438,0.568,0.666,-1.16,-6.47,-2.93,1
0.435,0.548,0.667,-1.648,-5.981,-2.075,1
0.429,0.544,0.663,-2.319,-5.493,-1.099,1
0.42,0.555,0.653,-2.869,-4.944,-0.061,1
0.413,0.572,0.641,-2.747,-4.456,0.793,1
0.409,0.593,0.618,-2.136,-3.54,0.793,1
0.422,0.603,0.599,-1.465,-2.991,0.488,1
0.432,0.612,0.603,0.244,-2.991,0.366,1
0.424,0.615,0.608,1.831,-3.54,0.427,1
0.419,0.618,0.606,2.808,-4.272,0.549,1
0.423,0.625,0.608,3.601,-4.333,0.488,1
0.43,0.63,0.609,3.845,-4.395,0.244,1
0.435,0.617,0.608,3.601,-4.211,0.122,1
0.446,0.614,0.609,3.418,-3.906,0.854,1
0.451,0.622,0.616,3.357,-3.784,1.709,1
0.453,0.626,0.633,3.113,-3.845,2.258,1
0.452,0.628,0.648,3.174,-3.723,2.686,1
0.45,0.63,0.659,2.747,-2.869,2.869,1
0.447,0.637,0.663,2.075,-1.77,2.747,1
0.447,0.638,0.658,1.526,-0.671,3.052,1
0.453,0.639,0.649,1.404,0.427,3.113,1
0.459,0.642,0.635,1.587,1.343,3.418,1
0.46,0.65,0.634,1.831,1.892,3.784,1
0.458,0.654,0.623,2.014,2.258,3.662,1
0.451,0.643,0.614,1.892,2.747,3.174,1
0.444,0.639,0.612,1.526,2.686,3.357,1
0.432,0.637,0.618,0.61,2.747,3.357,1
0.421,0.636,0.624,-0.732,2.502,3.418,1
0.418,0.64,0.623,-1.709,2.625,3.174,1
0.423,0.639,0.615,-2.075,2.441,2.625,1
0.433,0.626,0.61,-2.014,2.38,2.502,1
0.44,0.614,0.607,-1.709,2.319,2.441,1
0.44,0.614,0.611,-1.526,2.075,2.869,1
0.438,0.617,0.607,-1.709,2.258,2.93,1
0.438,0.605,0.599,-1.709,2.686,2.747,1
0.437,0.596,0.598,-1.77,2.808,2.991,1
0.433,0.6,0.604,-2.075,2.563,3.418,1
0.429,0.606,0.614,-2.197,2.258,3.906,1
0.424,0.615,0.622,-1.831,1.892,4.211,1
0.417,0.626,0.629,-0.854,2.014,4.272,1
0.413,0.634,0.634,0,2.258,4.089,1
0.412,0.637,0.635,0.671,2.625,3.845,1
0.418,0.636,0.631,1.16,2.991,3.296,1
0.422,0.631,0.627,1.648,2.991,3.174,1
0.423,0.626,0.618,1.282,2.869,2.93,1
0.427,0.628,0.612,0.183,2.869,2.747,1
0.435,0.631,0.616,-1.038,2.441,2.625,1
0.436,0.639,0.614,-1.953,2.075,2.136,1
0.434,0.637,0.609,-2.319,1.831,1.77,1
0.431,0.633,0.602,-1.892,1.587,1.648,1
0.431,0.632,0.594,-1.16,1.404,1.465,1
0.441,0.632,0.591,-0.183,1.038,1.526,1
0.439,0.632,0.601,0.488,0.549,1.587,1
0.433,0.632,0.611,0.916,-0.061,1.404,1
0.431,0.633,0.619,1.526,-0.183,1.282,1
0.428,0.629,0.626,2.014,-0.183,1.282,1
0.425,0.626,0.624,2.38,-0.122,1.038,1
0.43,0.627,0.617,2.502,-0.244,0.732,1
0.439,0.627,0.621,2.014,-0.244,0.549,1
0.438,0.62,0.63,1.16,-0.732,0.488,1
0.436,0.621,0.634,0.061,-1.038,0.427,1
0.435,0.621,0.634,-0.854,-0.916,0.427,1
0.434,0.622,0.63,-0.793,-0.793,0.671,1
0.435,0.623,0.622,-0.488,-0.671,0.488,1
0.44,0.629,0.621,-0.244,-0.549,0.488,1
0.438,0.636,0.612,-0.61,-0.61,0.305,1
0.437,0.631,0.604,-0.854,-0.793,0.061,1
0.439,0.622,0.602,-1.038,-0.854,0.122,1
0.44,0.621,0.61,-1.099,-1.16,0.305,1
0.436,0.621,0.619,-1.282,-1.465,0.793,1
0.433,0.622,0.623,-1.77,-1.465,1.038,1
0.434,0.627,0.623,-2.197,-1.465,1.16,1
0.437,0.634,0.623,-2.136,-1.404,1.282,1
0.438,0.64,0.623,-1.282,-1.404,1.16,1
0.433,0.637,0.633,-0.244,-1.282,1.099,1
0.427,0.636,0.634,0.305,-0.916,0.854,1
0.43,0.631,0.627,0.61,-0.366,0.549,1
0.436,0.623,0.622,0.244,0.122,0.366,1
0.433,0.62,0.622,-0.427,0.183,0.61,1
0.398,0.698,0.835,-239.075,12.268,107.727,1
0.432,0.758,0.656,-236.328,18.921,108.948,1
0.448,0.929,0.512,-223.328,22.888,104.858,1
0.448,1.085,0.383,-194.702,25.146,95.337,1
0.471,1.172,0.309,-150.146,25.269,84.167,1
0.472,1.193,0.172,-104.675,24.658,75.134,1
0.412,1.261,0.09,-69.153,19.775,64.514,1
0.356,1.424,0.117,-37.415,13.184,48.95,1
0.329,1.547,0.165,0.366,8.606,29.419,1
0.315,1.683,0.203,43.396,6.409,8.85,1
0.316,1.721,0.237,84.839,4.456,-11.963,1
0.33,1.555,0.301,116.272,1.892,-30.579,1
0.316,1.324,0.404,133.057,-0.122,-44.556,1
0.307,1.085,0.512,135.803,-2.075,-56.091,1
0.318,0.863,0.621,125.122,-4.517,-64.819,1
0.309,0.696,0.711,110.962,-6.531,-70.679,1
0.29,0.559,0.814,92.651,-6.897,-75.867,1
0.331,0.599,0.859,75.134,-8.118,-81.604,1
0.369,0.594,0.824,71.472,-10.681,-86.365,1
0.399,0.486,0.745,78.979,-11.841,-87.341,1
0.454,0.332,0.632,90.393,-11.658,-85.022,1
0.467,0.068,0.637,95.886,-10.254,-79.285,1
0.498,-0.046,0.702,96.68,-10.376,-70.313,1
0.496,-0.147,0.76,100.525,-10.803,-61.218,1
0.456,-0.236,0.739,109.009,-7.08,-50.293,1
0.504,-0.144,0.622,118.835,4.15,-36.133,1
0.623,-0.119,0.487,119.507,14.648,-24.353,1
0.669,-0.245,0.549,95.52,10.315,-9.46,1
0.62,-0.4,0.718,48.34,-1.038,11.169,1
0.556,-0.404,0.817,-6.897,-8.301,31.738,1
0.503,-0.161,0.883,-59.875,-10.62,45.898,1
0.442,0.26,0.95,-95.947,-7.69,52.063,1
0.408,0.635,0.977,-106.689,-2.319,51.331,1
0.404,0.796,0.929,-93.933,4.272,48.462,1
0.427,0.726,0.83,-74.219,11.475,47.729,1
0.465,0.67,0.713,-61.401,16.907,47.668,1
0.505,0.722,0.6,-53.345,19.836,44.861,1
0.545,0.709,0.521,-42.969,19.531,40.1,1
0.56,0.694,0.449,-35.645,16.968,35.4,1
0.546,0.756,0.416,-34.668,12.085,30.884,1
0.54,0.792,0.421,-33.264,5.737,25.452,1
0.524,0.821,0.455,-32.166,0.061,20.935,1
0.494,0.857,0.491,-31.372,-4.089,16.113,1
0.47,0.898,0.517,-28.564,-6.897,10.925,1
0.452,0.926,0.549,-23.132,-9.094,4.822,1
0.417,0.907,0.585,-14.709,-10.315,-1.038,1
0.419,0.805,0.617,-5.066,-9.949,-4.761,1
0.425,0.684,0.649,0.671,-10.01,-6.836,1
0.434,0.614,0.666,1.282,-9.949,-8.911,1
0.44,0.557,0.672,-0.671,-10.132,-10.925,1
0.445,0.514,0.678,-4.395,-10.742,-12.085,1
0.454,0.485,0.685,-8.728,-11.169,-12.573,1
0.461,0.458,0.693,-11.292,-11.353,-12.329,1
0.455,0.443,0.698,-10.681,-11.047,-11.23,1
0.458,0.418,0.705,-8.362,-9.949,-9.338,1
0.471,0.418,0.716,-5.188,-8.667,-6.958,1
0.479,0.422,0.72,-0.488,-7.446,-4.944,1
0.479,0.428,0.725,3.845,-5.981,-2.991,1
0.473,0.446,0.727,6.775,-4.272,-1.221,1
0.467,0.469,0.721,7.935,-3.052,0.549,1
0.464,0.482,0.714,7.202,-1.587,2.197,1
0.465,0.51,0.702,4.578,-0.244,3.723,1
0.474,0.549,0.673,2.319,0.732,4.211,1
0.487,0.564,0.642,0.977,1.404,4.028,1
0.495,0.579,0.619,-0.244,1.587,4.272,1
0.495,0.597,0.604,-1.526,1.282,4.517,1
0.492,0.622,0.6,-2.014,0.732,4.578,1
0.493,0.642,0.611,-2.014,0.061,4.7,1
0.49,0.646,0.63,-1.221,-0.61,4.089,1
0.484,0.649,0.649,0.305,-1.16,3.662,1
0.475,0.65,0.661,1.648,-1.526,3.174,1
0.469,0.643,0.665,2.93,-1.343,2.258,1
0.475,0.629,0.667,3.601,-0.916,1.526,1
0.476,0.615,0.674,2.869,-0.916,0.793,1
0.47,0.579,0.678,0.427,-0.916,-0.305,1
0.469,0.549,0.68,-1.709,-0.854,-0.732,1
0.465,0.537,0.679,-3.967,-0.854,-0.244,1
0.461,0.531,0.676,-5.432,-0.793,0.183,1
0.458,0.523,0.667,-5.981,-0.916,0.916,1
0.459,0.524,0.651,-5.92,-0.732,1.404,1
0.465,0.538,0.643,-6.042,-0.488,1.953,1
0.469,0.555,0.64,-5.859,-0.61,2.258,1
0.47,0.554,0.632,-5.31,-1.099,2.258,1
0.467,0.554,0.631,-4.395,-1.221,2.686,1
0.459,0.561,0.631,-2.808,-1.221,2.625,1
0.454,0.569,0.63,-1.465,-1.282,2.625,1
0.456,0.579,0.624,-0.549,-1.16,2.563,1
0.461,0.587,0.615,-0.061,-1.16,2.258,1
0.462,0.587,0.613,0.122,-1.282,1.77,1
0.461,0.579,0.616,0.549,-1.465,1.343,1
0.457,0.575,0.623,0.671,-1.404,1.282,1
0.46,0.573,0.638,0.793,-1.404,1.221,1
0.465,0.564,0.662,0.488,-1.221,1.221,1
0.464,0.569,0.672,0.305,-1.038,1.404,1
0.471,0.569,0.672,0.244,-0.61,1.526,1
0.475,0.571,0.672,0.244,0.244,1.77,1
0.473,0.566,0.672,0.61,0.793,2.014,1
0.474,0.56,0.674,0.732,1.282,2.197,1
0.472,0.561,0.668,0.793,1.343,2.625,1
0.468,0.564,0.661,0.793,1.16,2.93,1
0.467,0.568,0.655,0.549,1.099,3.296,1
0.464,0.577,0.654,0.427,1.099,3.357,1
0.462,0.587,0.648,0,0.977,3.235,1
0.461,0.59,0.651,-0.427,0.793,3.113,1
0.459,0.589,0.657,-1.099,0.732,2.686,1
0.458,0.595,0.66,-1.77,0.549,2.258,1
0.458,0.591,0.649,-2.136,0.549,1.465,1
0.464,0.577,0.646,-2.319,0.671,0.732,1
0.471,0.57,0.646,-2.258,0.488,0.61,1
0.47,0.57,0.645,-2.014,0.122,0.732,1
0.471,0.571,0.646,-1.526,-0.183,0.977,1
0.47,0.578,0.647,-0.793,-0.549,1.099,1
0.467,0.578,0.639,-0.183,-0.793,0.977,1
0.466,0.578,0.631,0.61,-0.732,1.038,1
0.467,0.582,0.627,0.916,-0.977,0.732,1
0.468,0.584,0.631,0.916,-1.404,0.732,1
0.462,0.586,0.635,0.977,-1.831,0.61,1
0.458,0.586,0.638,1.282,-1.892,0.488,1
0.454,0.582,0.634,1.587,-1.892,0.244,1
0.335,1.084,0.682,-114.38,12.329,83.008,1
0.331,1.116,0.594,-87.463,17.395,75.928,1
0.313,1.175,0.494,-61.584,21.729,67.993,1
0.302,1.155,0.389,-38.879,22.644,57.251,1
0.331,1.139,0.303,-24.048,19.714,45.166,1
0.33,1.235,0.287,-16.724,12.39,30.945,1
0.31,1.442,0.333,-9.033,4.272,12.39,1
0.291,1.604,0.368,13.123,1.16,-7.019,1
0.309,1.552,0.389,51.941,1.648,-24.17,1
0.326,1.308,0.424,86.121,3.784,-36.926,1
0.339,1.079,0.461,105.347,5.005,-45.532,1
0.354,0.888,0.506,108.398,4.211,-52.49,1
0.335,0.716,0.587,100.952,2.502,-57.922,1
0.308,0.686,0.675,88.562,0.977,-62.866,1
0.366,0.669,0.704,78.796,-1.282,-68.176,1
0.389,0.532,0.693,72.632,-3.906,-70.313,1
0.387,0.47,0.652,62.805,-6.042,-68.726,1
0.42,0.387,0.634,52.307,-8.728,-66.101,1
0.448,0.236,0.643,46.692,-11.475,-61.218,1
0.485,0.118,0.628,57.007,-11.169,-51.88,1
0.509,-0.018,0.663,75.5,-7.08,-40.527,1
0.519,-0.025,0.643,90.271,1.099,-28.931,1
0.55,0.025,0.593,93.994,10.071,-17.517,1
0.591,-0.036,0.599,76.172,11.658,-6.47,1
0.578,-0.093,0.681,41.077,5.92,7.812,1
0.51,-0.05,0.744,1.526,0.427,23.926,1
0.463,0.143,0.813,-33.875,-2.014,35.095,1
0.426,0.421,0.846,-54.626,-1.038,40.1,1
0.405,0.628,0.839,-61.89,1.282,41.443,1
0.4,0.721,0.781,-60.913,4.211,40.955,1
0.413,0.747,0.733,-57.739,7.935,40.1,1
0.439,0.726,0.667,-53.894,10.193,38.696,1
0.468,0.705,0.601,-51.453,11.047,36.865,1
0.476,0.737,0.531,-49.561,10.315,33.264,1
0.464,0.795,0.493,-48.645,6.592,27.466,1
0.463,0.827,0.488,-48.584,1.16,21.912,1
0.456,0.861,0.496,-47.729,-3.784,16.541,1
0.44,0.921,0.479,-43.274,-6.714,10.681,1
0.428,0.97,0.473,-31.799,-7.263,4.7,1
0.422,0.972,0.486,-16.663,-7.568,-0.366,1
0.419,0.9,0.519,-3.54,-7.812,-3.906,1
0.425,0.8,0.558,4.639,-7.935,-6.104,1
0.428,0.703,0.595,7.812,-8.545,-7.629,1
0.432,0.638,0.616,6.714,-9.277,-8.606,1
0.438,0.597,0.637,3.418,-10.315,-9.338,1
0.442,0.571,0.648,-0.61,-11.108,-9.644,1
0.435,0.529,0.66,-3.906,-11.292,-9.094,1
0.439,0.516,0.659,-5.798,-10.559,-7.507,1
0.453,0.511,0.65,-5.371,-9.277,-5.859,1
0.453,0.481,0.648,-2.808,-8.057,-4.272,1
0.445,0.475,0.646,-0.305,-6.775,-2.014,1
0.437,0.486,0.645,1.648,-5.432,0.061,1
0.443,0.51,0.642,2.441,-4.15,1.953,1
0.446,0.55,0.65,3.052,-3.296,3.54,1
0.438,0.58,0.648,4.272,-2.563,4.456,1
0.429,0.595,0.641,5.249,-1.831,5.127,1
0.42,0.61,0.638,5.92,-0.732,5.676,1
0.412,0.628,0.634,5.737,0.244,5.554,1
0.407,0.649,0.628,5.188,0.793,4.883,1
0.404,0.665,0.609,4.822,1.221,3.723,1
0.428,0.68,0.595,3.784,1.648,2.258,1
0.444,0.684,0.595,3.113,1.343,0.916,1
0.443,0.672,0.596,2.991,0.732,0,1
0.44,0.66,0.602,2.747,0.061,0,1
0.438,0.66,0.607,2.197,-0.183,-0.122,1
0.445,0.655,0.605,1.892,-0.366,-0.732,1
0.453,0.641,0.607,2.258,-0.854,-1.038,1
0.46,0.64,0.609,2.441,-1.282,-0.793,1
0.459,0.637,0.615,3.113,-1.648,-0.427,1
0.454,0.633,0.634,3.906,-1.953,0.183,1
0.448,0.622,0.659,4.333,-2.014,0.793,1
0.437,0.605,0.678,4.028,-1.831,0.916,1
0.432,0.601,0.687,3.296,-1.221,1.16,1
0.431,0.599,0.681,2.563,-0.366,1.648,1
0.431,0.6,0.671,1.892,0.549,2.014,1
0.443,0.609,0.642,1.77,1.282,2.014,1
0.447,0.607,0.617,1.77,1.526,2.197,1
0.446,0.601,0.603,1.282,1.587,2.563,1
0.444,0.603,0.599,0.549,1.099,3.174,1
0.442,0.617,0.606,-0.122,0.488,3.723,1
0.435,0.631,0.609,-0.61,0,4.028,1
0.432,0.638,0.604,-0.366,-0.305,3.906,1
0.43,0.627,0.604,0.122,-0.366,3.418,1
0.423,0.623,0.61,0.244,-0.488,3.174,1
0.416,0.625,0.617,0.488,-0.732,3.174,1
0.417,0.626,0.632,0.244,-1.099,3.235,1
0.415,0.628,0.649,0.061,-0.977,3.174,1
0.417,0.627,0.659,-0.183,-0.854,2.93,1
0.419,0.625,0.658,-0.366,-0.732,2.625,1
0.421,0.622,0.65,-0.488,0,2.014,1
0.427,0.618,0.634,-0.793,0.793,1.526,1
0.431,0.606,0.621,-1.587,0.977,0.977,1
0.433,0.598,0.611,-2.38,1.038,0.977,1
0.43,0.606,0.602,-2.747,0.916,1.404,1
0.43,0.614,0.598,-2.197,0.366,1.953,1
0.432,0.624,0.604,-1.77,-0.122,2.319,1
0.429,0.633,0.615,-1.282,-0.549,2.258,1
0.423,0.644,0.619,-1.343,-0.977,2.136,1
0.422,0.651,0.622,-1.221,-1.16,1.831,1
0.423,0.65,0.621,-0.183,-1.16,1.343,1
0.421,0.64,0.617,0.854,-1.16,1.038,1
0.429,0.637,0.613,1.038,-1.16,0.549,1
0.437,0.641,0.616,1.221,-1.465,0.061,1
0.435,0.645,0.617,0.793,-1.892,-0.183,1
0.435,0.635,0.619,-0.183,-2.136,-0.671,1
0.438,0.622,0.624,-0.977,-2.075,-0.671,1
0.437,0.614,0.626,-1.587,-2.136,-0.61,1
0.434,0.61,0.628,-1.953,-2.136,-0.183,1
0.432,0.61,0.627,-1.831,-2.014,0.366,1
0.431,0.613,0.627,-1.465,-1.831,0.61,1
0.431,0.611,0.626,-0.671,-1.587,0.977,1
0.432,0.607,0.629,0.061,-1.16,1.343,1
0.433,0.609,0.634,0.549,-0.488,2.014,1
0.436,0.614,0.633,1.099,-0.061,2.258,1
0.435,0.612,0.635,1.343,0.366,2.38,1
0.435,0.609,0.64,1.099,0.61,2.747,1
0.437,0.62,0.639,0.244,0.854,3.052,1
0.438,0.636,0.635,-0.366,0.854,3.357,1
0.434,0.645,0.627,-0.671,0.793,3.113,1
0.195,1.878,0.272,30.151,1.831,-5.432,1
0.21,1.819,0.285,78.125,4.456,-28.992,1
0.248,1.544,0.339,115.356,6.409,-47.913,1
0.283,1.25,0.416,134.949,6.531,-60.791,1
0.29,1.062,0.53,137.939,4.822,-71.167,1
0.268,0.825,0.665,131.165,5.127,-79.956,1
0.237,0.64,0.747,116.638,5.981,-85.999,1
0.282,0.663,0.724,97.717,5.249,-91.125,1
0.374,0.7,0.642,85.999,3.479,-95.154,1
0.424,0.725,0.548,84.167,1.831,-96.741,1
0.472,0.546,0.483,92.834,-0.244,-95.825,1
0.482,0.377,0.474,104.675,-2.136,-89.05,1
0.483,0.161,0.49,113.403,-3.662,-80.627,1
0.508,0.048,0.474,113.342,-7.385,-72.998,1
0.529,0.07,0.475,108.215,-11.78,-63.599,1
0.535,0.088,0.498,99.182,-16.113,-54.993,1
0.499,0.061,0.551,89.294,-18.25,-45.532,1
0.48,0.095,0.563,78.125,-20.813,-33.997,1
0.488,-0.009,0.619,61.096,-22.644,-23.376,1
0.474,-0.102,0.734,35.95,-23.621,-11.047,1
0.476,-0.06,0.836,9.521,-22.949,1.404,1
0.453,0.022,0.922,-17.395,-20.935,10.376,1
0.427,0.21,0.974,-44.189,-16.907,16.541,1
0.413,0.412,0.985,-61.401,-11.475,19.165,1
0.413,0.523,0.951,-63.293,-5.981,19.592,1
0.409,0.578,0.887,-53.101,-0.244,19.409,1
0.417,0.621,0.808,-39.49,5.127,18.005,1
0.438,0.679,0.734,-24.414,9.094,15.198,1
0.458,0.693,0.665,-11.047,11.78,11.475,1
0.479,0.67,0.612,-2.625,12.268,8.484,1
0.501,0.659,0.561,3.235,11.292,6.348,1
0.511,0.668,0.524,5.432,9.155,4.028,1
0.518,0.699,0.499,5.676,6.348,1.77,1
0.52,0.708,0.495,6.47,3.113,-0.732,1
0.515,0.708,0.521,7.568,0.122,-2.319,1
0.498,0.677,0.579,6.287,-2.38,-2.808,1
0.477,0.645,0.626,1.892,-4.211,-2.808,1
0.471,0.612,0.658,-1.831,-5.31,-2.808,1
0.469,0.59,0.693,-5.676,-5.981,-2.991,1
0.465,0.583,0.72,-7.385,-6.653,-3.296,1
0.455,0.551,0.741,-6.958,-6.409,-3.784,1
0.45,0.521,0.752,-4.517,-5.493,-4.211,1
0.447,0.486,0.754,-1.465,-4.333,-4.211,1
0.451,0.466,0.745,1.282,-2.808,-3.601,1
0.464,0.46,0.723,4.15,-1.404,-3.235,1
0.472,0.455,0.699,6.653,-0.244,-2.869,1
0.474,0.451,0.675,8.667,0.366,-2.136,1
0.475,0.453,0.657,9.705,0.732,-1.038,1
0.475,0.46,0.651,9.216,0.427,0.427,1
0.471,0.474,0.647,7.08,0.183,1.892,1
0.471,0.493,0.648,4.944,-0.183,3.052,1
0.467,0.526,0.656,3.723,-0.122,3.662,1
0.462,0.554,0.665,2.869,-0.061,3.845,1
0.459,0.569,0.677,3.357,-0.305,3.54,1
0.458,0.58,0.683,4.639,-0.183,3.174,1
0.459,0.585,0.686,6.348,0.244,2.38,1
0.468,0.579,0.688,7.507,0.366,1.892,1
0.486,0.575,0.701,7.141,0.61,1.587,1
0.493,0.567,0.708,6.042,0.549,1.16,1
0.497,0.546,0.712,4.639,0.061,0.427,1
0.493,0.532,0.713,2.686,-0.183,0.671,1
0.488,0.53,0.713,0.61,-0.183,1.038,1
0.481,0.529,0.705,-1.038,0.122,1.465,1
0.488,0.532,0.696,-1.953,0.244,2.136,1
0.493,0.535,0.693,-2.93,0.061,2.625,1
0.487,0.527,0.69,-3.906,-0.366,2.808,1
0.48,0.522,0.687,-3.967,-0.732,2.869,1
0.469,0.529,0.683,-3.784,-0.854,3.052,1
0.457,0.53,0.681,-2.441,-0.732,3.174,1
0.447,0.522,0.677,-0.854,-0.488,3.296,1
0.453,0.528,0.674,0.061,-0.122,3.296,1
0.458,0.532,0.676,1.16,0,3.052,1
0.458,0.528,0.673,2.136,-0.061,2.991,1
0.451,0.52,0.675,2.563,-0.061,2.93,1
0.45,0.517,0.685,2.686,-0.061,2.869,1
0.453,0.521,0.691,2.075,0.244,2.747,1
0.448,0.522,0.688,1.038,0.671,2.441,1
0.446,0.514,0.687,0.122,1.038,2.075,1
0.441,0.505,0.681,-0.793,1.282,2.075,1
0.445,0.505,0.68,-1.526,1.465,2.136,1
0.447,0.514,0.677,-2.075,1.343,2.197,1
0.449,0.518,0.674,-1.892,1.282,2.38,1
0.454,0.524,0.675,-1.221,1.282,2.38,1
0.459,0.527,0.677,-0.549,1.16,2.502,1
0.468,0.529,0.675,-0.122,0.977,2.502,1
0.473,0.532,0.676,0.366,0.916,2.502,1
0.473,0.541,0.678,0.427,0.793,2.563,1
0.468,0.547,0.681,0.671,0.61,2.502,1
0.464,0.551,0.687,0.671,0.244,2.258,1
0.464,0.556,0.692,0.671,0.122,2.136,1
0.464,0.559,0.697,0.488,-0.061,1.831,1
0.462,0.552,0.699,-0.244,-0.305,1.526,1
0.462,0.551,0.697,-1.16,-0.305,1.404,1
0.467,0.542,0.692,-1.831,-0.305,1.221,1
0.474,0.538,0.688,-2.441,-0.305,1.282,1
0.476,0.539,0.685,-2.38,-0.671,1.587,1
0.473,0.543,0.681,-1.892,-0.854,1.709,1
0.472,0.546,0.677,-1.038,-0.854,1.587,1
0.472,0.55,0.674,-0.183,-0.793,1.343,1
0.467,0.548,0.673,0.122,-0.732,1.221,1
0.463,0.545,0.669,0.366,-0.671,0.916,1
0.461,0.542,0.67,0.61,-0.671,0.671,1
0.459,0.533,0.679,0.366,-0.854,0.61,1
0.454,0.521,0.684,0,-1.038,0.61,1
0.456,0.525,0.688,-0.488,-1.038,0.977,1
0.463,0.535,0.693,-0.244,-1.16,0.916,1
0.463,0.532,0.693,-0.366,-1.282,1.099,1
0.463,0.531,0.694,-0.549,-1.16,1.648,1
0.466,0.536,0.695,-0.977,-0.854,1.709,1
0.463,0.542,0.693,-1.099,-0.793,1.526,1
0.46,0.543,0.683,-1.648,-0.549,1.526,1
0.457,0.537,0.673,-1.831,-0.427,1.343,1
0.456,0.541,0.668,-1.831,-0.366,1.343,1
0.466,0.547,0.667,-1.587,-0.244,1.221,1
0.469,0.545,0.67,-1.038,-0.427,1.343,1
0.464,0.545,0.669,-0.305,-0.732,1.221,1
0.461,0.549,0.669,0.61,-0.793,1.099,1
0.456,0.547,0.669,1.465,-0.488,1.099,1
0.455,0.541,0.678,1.404,-0.244,1.221,1
0.215,1.437,0.415,72.632,-3.052,-7.568,1
0.22,1.261,0.508,80.078,-4.944,-22.278,1
0.229,1.055,0.615,80.75,-5.127,-33.569,1
0.232,0.896,0.712,77.942,-4.822,-41.504,1
0.246,0.718,0.767,67.81,-5.31,-48.035,1
0.272,0.635,0.809,59.143,-6.958,-52.49,1
0.239,0.631,0.84,55.298,-6.714,-57.068,1
0.315,0.55,0.808,61.218,-6.958,-61.707,1
0.357,0.498,0.727,67.261,-4.822,-61.34,1
0.394,0.48,0.699,74.951,-3.845,-58.533,1
0.405,0.488,0.688,82.825,-2.869,-56.702,1
0.465,0.463,0.612,90.698,-2.991,-56.213,1
0.484,0.348,0.59,95.154,-3.662,-52.734,1
0.493,0.332,0.596,94.727,-5.371,-46.936,1
0.481,0.321,0.622,87.891,-5.859,-41.382,1
0.456,0.224,0.67,67.505,-7.08,-35.156,1
0.443,0.195,0.707,39.551,-9.216,-26.672,1
0.445,0.208,0.708,18.494,-10.498,-18.188,1
0.472,0.191,0.707,5.432,-10.437,-10.986,1
0.488,0.195,0.723,-7.812,-9.705,-4.272,1
0.49,0.214,0.742,-21.24,-9.216,2.869,1
0.482,0.292,0.743,-34.973,-8.606,9.521,1
0.477,0.414,0.72,-42.236,-7.751,13.428,1
0.47,0.502,0.692,-40.894,-6.653,15.564,1
0.462,0.565,0.668,-33.875,-4.639,16.541,1
0.451,0.64,0.659,-24.719,-2.869,16.357,1
0.437,0.709,0.651,-14.709,-1.221,15.015,1
0.421,0.75,0.645,-6.348,0.061,13,1
0.42,0.77,0.63,-2.319,0.732,10.681,1
0.424,0.783,0.612,-0.183,0.671,7.935,1
0.432,0.807,0.589,0.671,0.427,4.517,1
0.433,0.816,0.578,1.343,-0.793,-0.061,1
0.426,0.81,0.582,1.282,-2.441,-4.028,1
0.426,0.774,0.585,2.563,-4.028,-7.812,1
0.437,0.711,0.595,3.418,-4.944,-10.559,1
0.445,0.662,0.609,2.808,-6.042,-11.719,1
0.448,0.606,0.643,1.16,-7.263,-12.268,1
0.441,0.543,0.66,-1.709,-8.118,-12.451,1
0.444,0.486,0.673,-4.333,-8.606,-11.78,1
0.456,0.45,0.692,-5.188,-8.728,-10.01,1
0.463,0.443,0.707,-5.127,-8.484,-7.446,1
0.454,0.436,0.712,-4.395,-8.118,-5.127,1
0.446,0.413,0.723,-4.211,-7.324,-2.991,1
0.435,0.409,0.747,-5.737,-6.226,-0.488,1
0.427,0.437,0.762,-6.653,-4.517,1.892,1
0.421,0.465,0.751,-5.249,-2.625,3.357,1
0.41,0.473,0.734,-2.136,-0.488,4.7,1
0.405,0.488,0.717,-0.061,1.099,6.104,1
0.412,0.519,0.696,0.977,2.136,6.714,1
0.411,0.548,0.673,1.404,2.502,6.775,1
0.406,0.575,0.65,1.648,2.197,6.592,1
0.403,0.605,0.628,2.197,1.892,6.287,1
0.411,0.61,0.611,2.93,1.648,5.554,1
0.418,0.612,0.613,4.333,1.099,5.005,1
0.427,0.617,0.622,5.127,0.732,4.578,1
0.436,0.619,0.635,5.432,0,4.272,1
0.45,0.625,0.648,5.127,-0.793,3.906,1
0.457,0.628,0.655,4.517,-1.282,3.174,1
0.455,0.625,0.67,4.028,-1.648,2.563,1
0.448,0.611,0.694,3.601,-1.953,2.319,1
0.436,0.598,0.715,3.357,-1.892,2.197,1
0.425,0.583,0.734,3.113,-1.526,2.197,1
0.424,0.577,0.753,2.563,-1.038,2.563,1
0.426,0.571,0.761,1.587,-0.427,2.686,1
0.427,0.563,0.755,0.732,0.488,2.808,1
0.43,0.555,0.745,-0.427,1.16,2.808,1
0.43,0.552,0.73,-1.648,1.831,2.991,1
0.426,0.561,0.704,-3.113,2.625,2.869,1
0.428,0.56,0.662,-4.395,3.296,2.686,1
0.431,0.548,0.627,-4.395,3.723,2.319,1
0.431,0.545,0.609,-4.456,3.54,2.258,1
0.425,0.547,0.604,-3.967,2.563,2.625,1
0.42,0.562,0.606,-2.625,1.099,2.991,1
0.42,0.58,0.615,-0.549,-0.061,3.113,1
0.418,0.586,0.616,1.892,-0.854,2.869,1
0.418,0.574,0.629,3.601,-1.282,2.319,1
0.418,0.568,0.653,4.272,-1.648,2.197,1
0.419,0.563,0.676,3.906,-2.197,2.075,1
0.417,0.564,0.697,3.235,-2.563,2.075,1
0.416,0.569,0.711,2.747,-2.502,1.709,1
0.412,0.573,0.715,2.502,-1.831,1.587,1
0.415,0.571,0.723,2.319,-1.038,1.526,1
0.416,0.565,0.732,1.16,-0.305,1.526,1
0.409,0.566,0.731,-0.916,0.305,1.343,1
0.418,0.562,0.716,-2.991,1.038,0.793,1
0.431,0.557,0.699,-4.639,1.77,0.671,1
0.441,0.552,0.68,-6.042,1.77,0.793,1
0.449,0.565,0.663,-7.202,1.465,1.038,1
0.445,0.577,0.652,-7.08,0.977,1.16,1
0.437,0.592,0.641,-6.653,0.61,1.099,1
0.441,0.597,0.633,-5.249,0.488,1.038,1
0.445,0.593,0.637,-3.235,0.366,1.099,1
0.443,0.591,0.649,-1.465,-0.061,1.465,1
0.437,0.59,0.662,0.488,-0.366,1.709,1
0.433,0.592,0.676,1.343,-0.366,1.648,1
0.434,0.592,0.693,1.343,-0.366,1.404,1
0.43,0.584,0.698,0.977,-0.427,1.343,1
0.427,0.576,0.697,-0.244,-0.244,1.16,1
0.428,0.575,0.694,-1.404,-0.061,0.916,1
0.425,0.577,0.695,-2.38,0,0.916,1
0.427,0.568,0.685,-2.747,0.244,0.61,1
0.427,0.562,0.677,-3.174,0.366,0.427,1
0.423,0.559,0.665,-3.601,0.366,0.244,1
0.428,0.562,0.654,-3.723,0.122,0.427,1
0.434,0.563,0.652,-4.089,-0.244,0.732,1
0.432,0.568,0.665,-4.822,-0.854,1.099,1
0.426,0.566,0.669,-5.737,-1.526,1.343,1
0.425,0.581,0.674,-6.592,-1.77,1.465,1
0.424,0.595,0.666,-6.653,-1.587,1.282,1
0.432,0.591,0.664,-5.676,-1.221,0.977,1
0.437,0.586,0.661,-4.944,-1.343,0.977,1
0.438,0.592,0.656,-4.272,-1.526,0.793,1
0.435,0.594,0.65,-3.296,-1.587,0.732,1
0.431,0.594,0.65,-1.953,-1.892,0.61,1
0.423,0.593,0.655,-0.061,-1.709,0.427,1
0.422,0.587,0.668,1.587,-1.709,0.244,1
0.427,0.584,0.672,2.258,-1.587,-0.183,1
0.433,0.576,0.673,2.197,-1.465,-0.305,1
0.432,0.57,0.676,1.648,-1.404,-0.061,1
0.306,1.285,0.38,101.074,-6.653,-27.039,1
0.281,1.047,0.513,103.149,-10.132,-36.682,1
0.242,0.868,0.632,94.055,-12.024,-45.227,1
0.259,0.667,0.706,75.989,-12.39,-51.941,1
0.304,0.588,0.789,53.406,-14.16,-54.016,1
0.336,0.614,0.807,42.664,-15.93,-56.152,1
0.341,0.514,0.809,45.593,-15.442,-59.021,1
0.371,0.432,0.784,53.223,-13.55,-57.983,1
0.374,0.342,0.788,56.885,-11.292,-55.237,1
0.39,0.366,0.765,60.547,-10.132,-52.185,1
0.427,0.343,0.696,70.435,-9.094,-49.988,1
0.429,0.185,0.677,78.674,-7.69,-45.654,1
0.459,0.2,0.645,82.336,-6.836,-37.415,1
0.477,0.21,0.634,82.092,-5.859,-30.273,1
0.483,0.203,0.61,75.745,-5.005,-22.949,1
0.486,0.187,0.621,62.378,-5.249,-14.16,1
0.498,0.221,0.627,44.067,-6.47,-4.822,1
0.495,0.211,0.645,24.17,-7.019,2.686,1
0.482,0.263,0.697,0.793,-7.019,9.949,1
0.467,0.394,0.742,-20.569,-6.592,15.32,1
0.448,0.53,0.76,-36.377,-6.104,17.334,1
0.433,0.621,0.757,-41.321,-4.15,17.578,1
0.422,0.684,0.737,-37.964,-1.831,16.785,1
0.42,0.732,0.707,-29.297,0.854,14.709,1
0.428,0.752,0.672,-18.066,2.686,11.658,1
0.436,0.748,0.639,-7.69,3.418,8.118,1
0.438,0.738,0.609,-0.305,3.052,4.883,1
0.442,0.747,0.584,4.089,2.136,1.709,1
0.451,0.736,0.574,6.348,0.977,-1.343,1
0.451,0.689,0.579,6.042,-0.244,-3.357,1
0.454,0.633,0.589,4.333,-1.465,-4.517,1
0.459,0.604,0.607,1.465,-2.625,-5.127,1
0.461,0.592,0.619,-0.916,-3.662,-5.432,1
0.467,0.565,0.657,-3.113,-4.761,-5.066,1
0.466,0.548,0.697,-4.639,-5.737,-4.333,1
0.457,0.529,0.714,-4.639,-5.859,-3.845,1
0.455,0.508,0.724,-3.662,-5.371,-3.235,1
0.446,0.495,0.729,-1.953,-4.333,-2.625,1
0.435,0.484,0.718,-0.122,-3.113,-1.77,1
0.44,0.479,0.708,1.343,-2.319,-0.61,1
0.443,0.481,0.707,1.526,-1.709,0.732,1
0.439,0.495,0.712,0.977,-1.587,2.014,1
0.433,0.505,0.709,1.038,-1.404,3.296,1
0.427,0.513,0.7,0.854,-0.854,4.639,1
0.421,0.531,0.687,1.038,-0.183,5.432,1
0.422,0.556,0.674,0.977,0.671,5.127,1
0.42,0.563,0.659,0.793,1.221,4.7,1
0.422,0.564,0.641,0.061,1.343,4.15,1
0.424,0.566,0.631,-0.427,1.221,3.723,1
0.426,0.575,0.628,-0.549,0.854,3.54,1
0.43,0.575,0.628,0,0.61,3.113,1
0.434,0.575,0.632,1.343,0.122,3.052,1
0.437,0.588,0.634,2.563,-0.366,2.991,1
0.446,0.585,0.637,3.662,-0.732,2.502,1
0.451,0.583,0.646,4.761,-0.732,2.197,1
0.452,0.587,0.67,4.944,-0.977,2.319,1
0.444,0.579,0.696,4.822,-1.282,2.441,1
0.435,0.577,0.721,3.967,-1.221,2.563,1
0.428,0.584,0.734,2.747,-0.793,2.563,1
0.428,0.581,0.736,1.038,-0.183,2.014,1
0.426,0.582,0.727,-0.732,0.305,1.709,1
0.427,0.584,0.709,-2.075,0.916,1.587,1
0.428,0.582,0.685,-3.296,1.282,1.099,1
0.433,0.575,0.658,-3.784,1.648,0.916,1
0.441,0.576,0.632,-2.747,1.587,1.221,1
0.452,0.578,0.613,-1.526,1.465,1.038,1
0.455,0.58,0.606,-0.366,0.732,1.343,1
0.457,0.573,0.608,1.282,0.122,1.282,1
0.455,0.564,0.622,2.686,-0.61,1.282,1
0.455,0.564,0.635,3.174,-1.282,1.953,1
0.458,0.568,0.659,3.662,-1.709,2.502,1
0.454,0.57,0.674,3.967,-1.953,3.418,1
0.446,0.575,0.691,4.395,-2.075,3.784,1
0.439,0.58,0.707,4.639,-1.953,3.967,1
0.432,0.584,0.714,4.395,-1.587,3.967,1
0.422,0.584,0.716,3.54,-1.099,3.845,1
0.417,0.584,0.713,2.38,-0.61,3.296,1
0.409,0.583,0.702,1.16,0,2.991,1
0.408,0.576,0.689,-0.183,0.305,2.38,1
0.412,0.564,0.681,-1.404,0.61,1.892,1
0.413,0.56,0.677,-2.319,0.549,1.648,1
0.416,0.566,0.672,-2.808,0.488,1.465,1
0.421,0.567,0.661,-2.747,0.61,1.099,1
0.43,0.562,0.653,-2.014,0.671,0.977,1
0.437,0.559,0.653,-1.343,0.61,0.977,1
0.437,0.56,0.661,-1.099,0.305,1.16,1
0.435,0.561,0.668,-0.793,0.122,1.343,1
0.434,0.561,0.672,-0.244,0.244,1.526,1
0.437,0.566,0.669,0.305,0.366,1.648,1
0.444,0.572,0.665,0.61,0.732,1.587,1
0.445,0.57,0.672,0.488,0.793,1.648,1
0.443,0.56,0.677,-0.427,0.854,1.831,1
0.442,0.563,0.681,-1.343,0.916,1.953,1
0.438,0.565,0.695,-2.38,1.16,1.831,1
0.433,0.563,0.704,-3.357,1.404,2.136,1
0.433,0.559,0.696,-3.967,1.953,2.441,1
0.44,0.566,0.683,-4.395,2.625,2.869,1
0.443,0.572,0.668,-4.211,2.93,2.747,1
0.442,0.571,0.656,-3.662,2.991,2.747,1
0.435,0.581,0.646,-2.808,2.93,2.686,1
0.434,0.583,0.641,-2.136,2.869,2.197,1
0.432,0.581,0.643,-1.465,2.563,1.709,1
0.434,0.573,0.651,-1.343,2.197,1.648,1
0.435,0.567,0.657,-1.16,1.526,1.404,1
0.436,0.569,0.664,-1.099,0.916,1.404,1
0.436,0.57,0.675,-0.61,0.916,1.282,1
0.435,0.569,0.678,0,0.793,1.16,1
0.434,0.566,0.677,0.305,0.671,1.099,1
0.436,0.566,0.677,0.244,0.671,0.793,1
0.434,0.563,0.677,-0.549,0.488,0.732,1
0.435,0.563,0.674,-1.221,0.427,0.916,1
0.438,0.568,0.676,-1.526,0,0.854,1
0.44,0.574,0.677,-1.648,-0.305,0.916,1
0.443,0.579,0.675,-1.709,-0.488,0.854,1
0.443,0.584,0.669,-1.709,-0.671,0.61,1
0.442,0.586,0.667,-1.526,-0.549,0.122,1
0.443,0.582,0.662,-1.587,-0.549,-0.061,1
0.444,0.575,0.654,-1.526,-0.671,-0.183,1
0.451,0.571,0.652,-1.343,-0.793,-0.244,1
0.454,0.653,0.895,19.531,3.235,-21.423,1
0.468,0.605,0.89,12.085,4.211,-24.963,1
0.491,0.576,0.889,4.395,5.676,-27.344,1
0.526,0.544,0.885,-1.221,6.958,-27.893,1
0.541,0.515,0.864,-6.531,8.911,-27.71,1
0.485,0.513,0.834,-9.827,12.817,-26.55,1
0.621,0.512,0.768,-5.92,20.325,-20.813,1
0.699,0.486,0.724,-0.549,22.949,-21.973,1
0.658,0.559,0.688,0.549,22.461,-26.184,1
0.626,0.543,0.651,9.155,24.231,-24.414,1
0.661,0.46,0.608,20.02,26.672,-20.325,1
0.679,0.416,0.578,24.109,27.283,-18.25,1
0.664,0.402,0.589,21.79,26.306,-16.052,1
0.625,0.365,0.627,17.151,25.269,-11.658,1
0.61,0.333,0.603,10.254,24.536,-6.958,1
0.611,0.33,0.581,1.587,24.048,-3.357,1
0.621,0.369,0.551,-5.615,23.376,1.587,1
0.62,0.373,0.55,-9.338,23.071,7.202,1
0.595,0.338,0.554,-10.742,22.156,13.428,1
0.583,0.23,0.536,-14.221,20.203,20.935,1
0.574,0.148,0.502,-24.841,15.015,30.029,1
0.552,0.136,0.431,-38.208,10.193,37.903,1
0.549,0.144,0.359,-48.34,6.165,44.983,1
0.56,0.172,0.297,-58.167,2.014,52.551,1
0.566,0.235,0.258,-65.979,-2.258,59.875,1
0.55,0.337,0.239,-69.458,-6.958,65.552,1
0.52,0.483,0.199,-68.054,-11.108,70.557,1
0.492,0.686,0.163,-63.599,-14.648,73.181,1
0.464,0.948,0.134,-55.542,-17.029,72.449,1
0.432,1.123,0.133,-42.297,-20.02,68.542,1
0.409,1.191,0.142,-30.029,-24.597,62.256,1
0.375,1.192,0.105,-19.958,-30.457,53.894,1
0.375,1.215,0.055,-11.292,-36.682,41.443,1
0.38,1.318,0.076,0.427,-44.922,25.635,1
0.346,1.499,0.126,24.353,-53.345,5.432,1
0.383,1.653,0.131,63.904,-58.96,-17.151,1
0.369,1.601,0.306,115.967,-62.134,-37.415,1
0.383,0.953,0.657,165.283,-56.335,-52.124,1
0.373,0.696,1.273,173.584,-41.321,-57.068,1
0.152,0.509,1.599,157.837,-27.039,-64.697,1
0.158,0.456,1.692,130.554,-12.878,-70.435,1
0.234,0.192,1.548,118.164,2.808,-72.632,1
0.29,0.046,1.291,101.257,17.334,-75.256,1
0.406,0.166,0.953,78.369,28.442,-68.909,1
0.499,0.081,0.665,59.814,30.334,-63.11,1
0.56,-0.061,0.434,42.603,27.954,-57.861,1
0.574,-0.179,0.333,30.579,21.301,-48.706,1
0.574,-0.211,0.317,22.705,13.672,-35.583,1
0.597,-0.26,0.312,19.165,7.202,-21.179,1
0.625,-0.275,0.349,13.916,0.549,-7.629,1
0.652,-0.253,0.412,6.958,-5.31,7.446,1
0.649,-0.204,0.513,-9.399,-9.216,23.254,1
0.587,-0.046,0.624,-32.41,-11.536,38.086,1
0.518,0.113,0.688,-52.002,-11.292,50.842,1
0.486,0.373,0.711,-59.387,-8.667,62.378,1
0.461,0.503,0.646,-61.035,-6.104,64.331,1
0.44,0.599,0.563,-56.641,-3.418,65.43,1
0.457,0.67,0.492,-53.894,-1.892,66.833,1
0.471,0.653,0.485,-51.88,-2.197,68.298,1
0.505,0.618,0.486,-57.495,-3.601,69.763,1
0.506,0.574,0.451,-73.364,-7.629,71.228,1
0.502,0.607,0.443,-101.746,-12.207,73.059,1
0.489,0.846,0.493,-131.714,-17.09,72.449,1
0.434,1.133,0.6,-149.597,-21.667,66.589,1
0.373,1.435,0.706,-135.01,-21.118,56.274,1
0.314,1.479,0.798,-98.999,-16.235,40.71,1
0.305,1.369,0.826,-57.373,-9.033,25.818,1
0.322,1.26,0.847,-16.357,-2.441,12.756,1
0.404,1.228,0.86,20.02,3.174,-4.15,1
0.397,1.26,0.889,55.786,5.981,-24.536,1
0.346,1.122,0.872,90.759,10.498,-42.48,1
0.307,0.915,0.816,109.009,15.869,-54.382,1
0.304,0.753,0.709,108.215,19.958,-62.561,1
0.372,0.674,0.581,96.375,20.691,-67.749,1
0.435,0.553,0.501,84.29,18.311,-70.068,1
0.481,0.389,0.467,71.594,14.038,-70.557,1
0.52,0.335,0.433,60.486,7.751,-69.031,1
0.541,0.388,0.413,61.584,1.77,-65.186,1
0.538,0.307,0.438,77.332,-2.319,-60.608,1
0.542,0.195,0.521,89.783,-5.066,-55.176,1
0.555,0.188,0.556,100.586,-6.042,-46.753,1
0.58,0.06,0.587,107.422,-5.493,-37.109,1
0.593,-0.106,0.664,103.577,-5.981,-27.222,1
0.586,-0.195,0.743,88.196,-7.202,-16.479,1
0.564,-0.184,0.815,59.753,-8.179,-5.493,1
0.531,-0.073,0.834,25.452,-9.46,3.845,1
0.519,0.073,0.815,-6.836,-9.399,12.695,1
0.506,0.198,0.767,-31.006,-8.301,19.47,1
0.5,0.302,0.713,-49.377,-7.568,23.804,1
0.502,0.394,0.683,-59.814,-6.958,26.855,1
0.503,0.473,0.664,-60.791,-6.348,28.381,1
0.498,0.535,0.673,-53.406,-6.104,28.198,1
0.486,0.579,0.696,-43.213,-5.554,27.161,1
0.479,0.618,0.703,-32.349,-4.944,24.475,1
0.469,0.662,0.716,-19.897,-4.211,21.179,1
0.453,0.698,0.738,-8.057,-3.418,16.785,1
0.443,0.705,0.75,1.953,-2.319,11.963,1
0.447,0.687,0.749,8.545,-1.099,7.385,1
0.458,0.667,0.746,11.902,0,3.296,1
0.474,0.635,0.74,12.573,0.549,-0.183,1
0.488,0.575,0.733,11.047,0.671,-2.686,1
0.499,0.518,0.724,7.69,0.244,-4.333,1
0.502,0.48,0.717,4.578,-0.366,-5.249,1
0.501,0.453,0.706,1.77,-0.793,-5.554,1
0.501,0.429,0.699,-0.122,-1.099,-5.371,1
0.504,0.415,0.697,-1.221,-1.16,-4.333,1
0.502,0.407,0.696,-0.916,-1.221,-3.113,1
0.494,0.399,0.69,-0.61,-0.854,-2.014,1
0.489,0.396,0.685,-0.427,-0.671,-0.366,1
0.493,0.402,0.69,-0.793,-0.793,1.282,1
0.498,0.42,0.7,-1.465,-1.282,2.38,1
0.494,0.433,0.714,-2.563,-1.953,3.296,1
0.49,0.442,0.719,-4.15,-2.747,3.784,1
0.489,0.457,0.716,-6.409,-2.93,4.272,1
0.493,0.474,0.712,-7.751,-2.991,4.578,1
0.497,0.492,0.709,-8.789,-3.052,4.639,1
0.5,0.51,0.714,-8.972,-3.052,4.456,1
0.499,0.513,0.715,-8.423,-3.052,4.089,1
0.497,0.513,0.717,-7.751,-2.869,3.479,1
0.287,1.354,0.461,-75.378,-8.667,40.894,1
0.261,1.44,0.439,-50.903,-6.714,27.527,1
0.224,1.466,0.47,-20.691,-3.845,11.414,1
0.204,1.506,0.512,16.785,0.244,-6.287,1
0.197,1.449,0.55,61.218,5.371,-25.635,1
0.218,1.287,0.584,102.539,11.23,-43.274,1
0.258,1.109,0.619,132.263,16.663,-56.458,1
0.291,1.004,0.67,148.254,21.24,-66.223,1
0.294,0.891,0.706,154.358,24.841,-74.219,1
0.271,0.848,0.719,150.024,27.527,-80.383,1
0.298,0.881,0.675,144.531,29.053,-86.426,1
0.332,0.808,0.623,142.7,29.236,-91.797,1
0.392,0.71,0.557,144.409,27.161,-93.079,1
0.449,0.663,0.486,142.822,25.818,-91.553,1
0.464,0.61,0.442,138.55,23.987,-91.431,1
0.455,0.439,0.43,139.587,20.02,-90.515,1
0.481,0.304,0.39,138.062,13.733,-86.975,1
0.545,0.133,0.338,141.357,8.911,-78.247,1
0.578,-0.156,0.399,133.545,3.479,-69.458,1
0.574,-0.283,0.443,114.502,-4.578,-61.523,1
0.567,-0.315,0.509,90.698,-12.024,-49.683,1
0.585,-0.322,0.565,64.819,-18.433,-36.987,1
0.597,-0.341,0.647,38.757,-22.583,-21.179,1
0.556,-0.345,0.725,9.583,-25.574,-4.761,1
0.509,-0.335,0.821,-25.33,-26.062,11.78,1
0.461,-0.222,0.906,-69.153,-23.926,29.114,1
0.438,-0.025,0.932,-111.938,-20.02,44.128,1
0.442,0.105,0.883,-145.874,-15.198,55.542,1
0.449,0.171,0.799,-170.105,-10.193,64.026,1
0.447,0.292,0.675,-184.082,-4.272,70.618,1
0.453,0.387,0.501,-191.589,2.38,75.5,1
0.49,0.403,0.328,-200.745,6.47,82.092,1
0.515,0.346,0.254,-213.135,4.578,91.248,1
0.552,0.372,0.213,-230.53,0.305,102.356,1
0.524,0.603,0.238,-241.394,-5.554,110.046,1
0.472,0.877,0.308,-230.225,-9.155,111.328,1
0.414,1.098,0.347,-196.899,-7.69,109.619,1
0.348,1.139,0.347,-152.1,-3.906,104.858,1
0.272,1.217,0.386,-114.38,-0.061,97.9,1
0.253,1.39,0.361,-74.89,3.784,89.172,1
0.215,1.458,0.306,-34.18,7.202,73.975,1
0.139,1.594,0.323,-4.822,8.057,54.138,1
0.132,1.756,0.372,24.109,8.24,29.602,1
0.104,1.751,0.414,63.904,10.803,4.211,1
0.116,1.579,0.44,98.938,14.343,-17.456,1
0.18,1.356,0.485,120.422,16.602,-33.447,1
0.218,1.136,0.563,124.756,16.785,-45.471,1
0.244,0.992,0.635,116.943,15.991,-55.603,1
0.276,0.852,0.689,107.056,15.442,-64.209,1
0.296,0.656,0.724,99.243,15.991,-68.787,1
0.322,0.525,0.731,92.224,17.212,-68.848,1
0.359,0.487,0.719,84.595,17.944,-67.017,1
0.401,0.558,0.665,79.285,16.968,-65.369,1
0.442,0.536,0.584,84.412,16.235,-62.927,1
0.468,0.396,0.542,91.003,15.137,-58.838,1
0.492,0.333,0.533,91.797,12.939,-53.101,1
0.515,0.369,0.54,86.548,10.681,-47.363,1
0.509,0.403,0.537,80.75,7.019,-43.274,1
0.508,0.407,0.523,74.219,3.235,-39.49,1
0.501,0.409,0.523,69.641,0.122,-35.4,1
0.515,0.362,0.543,65.674,-2.808,-30.457,1
0.529,0.316,0.582,56.03,-5.188,-24.17,1
0.534,0.278,0.609,43.518,-7.08,-17.273,1
0.542,0.26,0.629,28.625,-8.362,-10.437,1
0.542,0.281,0.656,12.939,-9.521,-4.028,1
0.527,0.315,0.67,0.183,-10.376,1.038,1
0.517,0.344,0.683,-9.338,-10.437,5.798,1
0.502,0.392,0.689,-15.015,-10.01,10.193,1
0.482,0.431,0.698,-16.541,-9.46,13.489,1
0.466,0.485,0.706,-15.869,-8.728,15.564,1
0.458,0.53,0.704,-12.939,-7.507,17.029,1
0.444,0.562,0.703,-9.46,-6.47,17.639,1
0.433,0.595,0.695,-6.348,-5.066,17.7,1
0.426,0.634,0.692,-4.456,-3.601,17.334,1
0.421,0.667,0.685,-4.089,-2.747,16.296,1
0.416,0.682,0.672,-6.287,-1.77,14.648,1
0.416,0.694,0.656,-10.01,-1.099,12.634,1
0.425,0.698,0.639,-15.625,-0.854,10.071,1
0.435,0.688,0.631,-20.264,-0.916,7.69,1
0.436,0.68,0.63,-23.621,-1.526,5.31,1
0.431,0.663,0.631,-25.208,-2.014,3.174,1
0.432,0.634,0.634,-25.085,-2.502,1.709,1
0.439,0.612,0.655,-24.719,-2.686,0.61,1
0.441,0.594,0.673,-22.095,-2.319,-0.305,1
0.441,0.568,0.687,-18.066,-2.136,-0.305,1
0.442,0.551,0.691,-14.465,-1.648,-0.061,1
0.444,0.54,0.681,-11.597,-1.099,0.427,1
0.448,0.538,0.664,-9.827,-0.61,1.038,1
0.448,0.548,0.644,-9.155,-0.244,1.587,1
0.446,0.578,0.635,-7.996,-0.244,1.709,1
0.443,0.593,0.626,-4.517,-0.244,1.953,1
0.437,0.585,0.621,-1.099,-0.427,2.319,1
0.433,0.588,0.621,0.732,-0.549,2.563,1
0.43,0.601,0.624,1.221,-0.854,2.319,1
0.423,0.606,0.626,1.404,-0.977,2.014,1
0.424,0.609,0.626,0.977,-1.282,1.465,1
0.43,0.613,0.623,0.305,-1.282,1.221,1
0.434,0.614,0.627,0,-1.526,0.916,1
0.436,0.615,0.63,-0.244,-1.892,0.671,1
0.442,0.617,0.634,-0.549,-2.014,0.488,1
0.445,0.621,0.634,-0.854,-2.136,0,1
0.449,0.62,0.635,-1.282,-2.258,-0.244,1
0.45,0.62,0.636,-1.16,-2.38,-0.366,1
0.447,0.607,0.64,-0.183,-2.441,-0.183,1
0.447,0.598,0.646,0.305,-2.319,0.183,1
0.445,0.602,0.655,-0.183,-2.38,0.854,1
0.44,0.61,0.657,-1.16,-2.38,1.099,1
0.436,0.618,0.659,-2.014,-1.892,1.099,1
0.437,0.623,0.655,-1.953,-1.221,1.099,1
0.441,0.625,0.643,-1.465,-0.793,0.977,1
0.444,0.621,0.633,-0.671,-0.549,0.793,1
0.444,0.621,0.628,-0.183,-0.366,0.793,1
0.444,0.623,0.627,0.366,-0.183,0.549,1
0.444,0.618,0.626,0.549,0,0.366,1
0.441,0.61,0.629,0.854,0.122,0.427,1
0.44,0.607,0.634,1.038,0.427,0.549,1
0.44,0.605,0.641,1.16,0.732,0.793,1
0.438,0.602,0.646,1.099,0.793,1.282,1
0.436,0.603,0.648,0.549,0.977,1.404,1
0.162,1.761,0.312,-34.79,-1.77,32.776,1
0.16,1.75,0.369,-12.695,0.488,13.672,1
0.182,1.712,0.45,13.123,1.404,-6.592,1
0.176,1.535,0.532,47.852,2.38,-29.541,1
0.193,1.37,0.625,88.074,6.165,-49.377,1
0.206,1.212,0.702,131.47,14.221,-64.88,1
0.198,1.068,0.751,171.692,24.17,-77.209,1
0.192,1.039,0.733,201.66,33.997,-87.28,1
0.249,0.952,0.669,221.924,42.358,-95.642,1
0.281,0.716,0.667,230.408,45.654,-101.44,1
0.285,0.612,0.665,220.093,46.204,-103.394,1
0.297,0.757,0.636,202.942,45.471,-105.591,1
0.333,0.858,0.547,198.792,43.64,-110.779,1
0.285,0.735,0.435,207.52,41.565,-111.877,1
0.399,0.474,0.35,213.196,46.814,-102.905,1
0.522,0.204,0.292,204.895,47.18,-97.534,1
0.588,0.015,0.277,182.129,38.33,-95.764,1
0.614,-0.114,0.236,159.119,27.161,-91.736,1
0.669,-0.262,0.225,140.442,16.846,-80.933,1
0.694,-0.331,0.3,119.873,5.92,-69.397,1
0.678,-0.331,0.439,105.286,-5.554,-58.35,1
0.648,-0.365,0.625,83.679,-13.977,-46.021,1
0.618,-0.441,0.744,63.66,-18.677,-31.128,1
0.568,-0.637,0.814,35.156,-20.813,-14.526,1
0.509,-0.77,0.781,-8.179,-21.057,3.54,1
0.503,-0.727,0.682,-82.642,-21.301,23.315,1
0.517,-0.486,0.608,-161.56,-24.536,41.687,1
0.523,-0.238,0.642,-216.98,-30.396,59.998,1
0.526,-0.097,0.73,-259.033,-34.668,78.064,1
0.513,0.026,0.83,-281.799,-33.63,90.881,1
0.48,0.222,0.859,-281.494,-26.55,97.412,1
0.447,0.3,0.741,-267.151,-16.785,102.417,1
0.463,0.307,0.521,-248.779,-8.972,109.802,1
0.521,0.5,0.391,-231.873,-3.967,116.516,1
0.464,0.817,0.381,-198.975,0.977,119.324,1
0.433,0.833,0.292,-159.241,7.08,117.798,1
0.372,0.873,0.193,-134.521,9.644,117.371,1
0.348,1.074,0.154,-118.896,9.521,117.493,1
0.323,1.233,0.077,-104.675,9.338,114.685,1
0.349,1.217,-0.027,-98.45,5.066,107.666,1
0.294,1.285,-0.047,-107.91,-3.052,98.877,1
0.23,1.636,0.039,-113.953,-13.855,84.351,1
0.199,1.913,0.13,-93.628,-21.301,64.209,1
0.166,1.982,0.257,-52.673,-23.499,39.124,1
0.133,1.909,0.465,-0.977,-22.766,12.268,1
0.077,1.838,0.682,62.195,-16.418,-15.076,1
0.067,1.545,0.82,134.46,-2.258,-40.894,1
0.094,1.15,0.931,186.584,14.038,-59.082,1
0.134,0.916,1.018,210.693,28.198,-70.496,1
0.203,0.766,1.071,209.534,39.49,-77.942,1
0.239,0.651,1.034,190.735,46.143,-82.581,1
0.298,0.603,0.908,162.231,48.95,-85.449,1
0.362,0.557,0.798,132.751,48.706,-86.731,1
0.352,0.431,0.703,104.37,46.875,-84.412,1
0.395,0.438,0.552,80.505,43.884,-80.139,1
0.443,0.503,0.393,66.223,40.527,-74.89,1
0.549,0.561,0.222,64.026,32.41,-72.144,1
0.627,0.45,0.165,77.82,23.193,-67.993,1
0.627,0.234,0.22,88.806,15.137,-61.401,1
0.64,0.139,0.311,88.074,5.615,-54.871,1
0.611,0.11,0.415,84.961,-2.258,-46.387,1
0.592,0.071,0.492,79.956,-7.263,-37.72,1
0.586,0.025,0.589,74.219,-10.315,-27.71,1
0.586,0.011,0.71,69.946,-10.193,-17.517,1
0.563,-0.01,0.792,62.927,-9.033,-7.629,1
0.552,-0.011,0.828,45.349,-8.118,0.793,1
0.534,0.029,0.839,21.545,-7.874,8.972,1
0.504,0.129,0.823,-1.892,-7.751,15.991,1
0.48,0.235,0.797,-19.165,-7.507,20.447,1
0.468,0.339,0.768,-31.006,-7.385,23.254,1
0.459,0.422,0.728,-36.865,-6.775,24.963,1
0.458,0.5,0.698,-40.283,-5.92,25.94,1
0.458,0.578,0.688,-41.565,-5.005,25.94,1
0.449,0.635,0.678,-40.833,-4.395,24.658,1
0.444,0.665,0.661,-38.635,-3.54,22.766,1
0.453,0.69,0.646,-35.645,-2.686,20.203,1
0.467,0.702,0.633,-31.555,-2.075,17.09,1
0.48,0.707,0.635,-27.405,-2.136,13.672,1
0.483,0.706,0.661,-23.193,-2.747,10.376,1
0.48,0.707,0.689,-16.052,-2.869,6.836,1
0.476,0.675,0.71,-7.019,-2.319,3.296,1
0.473,0.626,0.715,1.221,-1.404,0.366,1
0.478,0.567,0.722,6.958,-0.183,-1.648,1
0.477,0.52,0.744,9.338,0.427,-2.563,1
0.47,0.482,0.754,8.911,0.549,-2.93,1
0.47,0.456,0.742,6.653,0.732,-3.052,1
0.479,0.441,0.722,3.235,0.916,-2.625,1
0.489,0.44,0.695,-0.793,0.916,-2.014,1
0.493,0.443,0.673,-4.272,0.61,-1.16,1
0.492,0.445,0.658,-6.897,-0.183,0.183,1
0.485,0.46,0.642,-7.996,-0.916,1.404,1
0.486,0.48,0.633,-8.362,-1.526,2.502,1
0.485,0.492,0.63,-8.362,-2.258,3.418,1
0.478,0.49,0.637,-9.155,-3.296,4.15,1
0.471,0.501,0.645,-9.705,-3.906,4.517,1
0.463,0.512,0.654,-9.399,-4.456,4.7,1
0.459,0.521,0.66,-8.362,-4.822,4.639,1
0.458,0.523,0.669,-7.629,-5.127,4.578,1
0.46,0.53,0.673,-7.324,-5.066,4.272,1
0.463,0.539,0.667,-6.592,-4.822,4.15,1
0.469,0.549,0.67,-5.981,-4.7,3.662,1
0.47,0.57,0.683,-5.31,-4.395,3.357,1
0.464,0.578,0.694,-3.601,-3.967,2.808,1
0.462,0.572,0.692,-2.014,-3.357,2.014,1
0.472,0.572,0.683,-0.854,-2.563,1.587,1
0.482,0.573,0.678,-0.488,-2.075,1.221,1
0.485,0.571,0.679,-0.122,-2.014,0.671,1
0.482,0.572,0.685,0.549,-2.075,0.488,1
0.478,0.559,0.697,0.366,-1.892,0.671,1
0.479,0.545,0.705,-0.977,-1.343,0.854,1
0.483,0.553,0.706,-2.38,-0.854,1.465,1
0.483,0.563,0.69,-2.686,-0.488,1.404,1
0.485,0.561,0.678,-2.136,0.122,1.282,1
0.487,0.547,0.672,-1.282,0.366,1.587,1
0.485,0.539,0.673,-0.549,0.549,1.953,1
0.481,0.543,0.675,-0.183,0.549,2.014,1
0.474,0.547,0.679,0.122,0.549,2.014,1
0.469,0.547,0.676,0,0.549,2.258,1
0.467,0.544,0.672,-0.305,0.61,2.747,1
0.269,1.451,0.617,-27.71,-7.568,11.841,1
0.235,1.6,0.665,6.897,-3.418,-2.502,1
0.238,1.628,0.709,51.514,3.113,-18.86,1
0.247,1.448,0.714,98.145,12.268,-35.339,1
0.289,1.225,0.716,133.484,21.729,-48.95,1
0.33,1.033,0.704,158.142,30.09,-59.998,1
0.365,0.953,0.709,169.006,35.522,-70.862,1
0.388,1.013,0.708,172.791,37.903,-82.397,1
0.391,0.955,0.678,179.443,40.222,-91.858,1
0.37,0.745,0.65,181.274,43.762,-96.191,1
0.368,0.614,0.63,168.03,46.265,-97.168,1
0.451,0.677,0.551,144.348,43.64,-99.06,1
0.492,0.643,0.472,131.775,36.438,-103.76,1
0.476,0.454,0.478,129.211,33.386,-102.844,1
0.502,0.386,0.422,130.554,29.663,-102.844,1
0.567,0.239,0.346,135.925,23.071,-102.417,1
0.591,-0.062,0.359,132.385,17.212,-97.717,1
0.579,-0.195,0.404,123.962,10.315,-90.576,1
0.535,-0.395,0.455,119.507,3.296,-81.665,1
0.543,-0.676,0.544,99.304,-2.563,-70.618,1
0.6,-0.742,0.628,78.918,-7.812,-55.054,1
0.611,-0.747,0.673,57.373,-12.756,-38.757,1
0.591,-0.74,0.742,33.02,-15.869,-20.203,1
0.56,-0.761,0.794,11.658,-15.015,1.709,1
0.56,-0.794,0.832,-23.682,-11.719,25.33,1
0.559,-0.678,0.877,-81.238,-8.301,48.645,1
0.562,-0.401,0.881,-139.343,-7.019,68.359,1
0.543,-0.2,0.835,-180.542,-5.493,82.214,1
0.518,-0.103,0.702,-207.214,-2.197,91.797,1
0.522,0.077,0.549,-224.609,0.793,100.586,1
0.522,0.342,0.453,-227.722,3.601,107.727,1
0.485,0.476,0.368,-213.44,6.226,112.244,1
0.461,0.46,0.269,-193.42,7.446,116.028,1
0.49,0.512,0.215,-179.993,7.935,120.239,1
0.477,0.664,0.246,-166.748,5.676,123.779,1
0.456,0.884,0.29,-145.203,2.625,123.474,1
0.438,1.021,0.359,-116.638,0.61,118.774,1
0.383,1.218,0.405,-81.726,0.244,111.328,1
0.299,1.394,0.382,-38.757,0.061,99.487,1
0.284,1.56,0.415,-6.348,1.099,84.351,1
0.252,1.698,0.497,21.912,1.404,67.444,1
0.219,1.639,0.529,40.466,2.197,45.654,1
0.222,1.643,0.606,45.044,1.038,24.963,1
0.198,1.542,0.754,48.035,0.854,3.723,1
0.204,1.367,0.951,53.345,2.563,-16.724,1
0.21,1.121,1.071,64.392,8.728,-32.104,1
0.253,0.873,1.079,72.876,16.174,-45.166,1
0.323,0.745,0.979,75.745,21.057,-56.091,1
0.381,0.712,0.822,81.116,23.743,-65.43,1
0.401,0.639,0.676,91.37,24.597,-72.815,1
0.426,0.503,0.566,101.013,24.78,-76.477,1
0.449,0.383,0.524,100.281,23.804,-74.707,1
0.466,0.363,0.499,90.576,20.264,-71.838,1
0.535,0.353,0.506,82.52,16.663,-67.139,1
0.556,0.272,0.534,81.116,12.146,-62.683,1
0.583,0.215,0.569,81.604,8.362,-57.556,1
0.573,0.096,0.645,80.872,5.92,-51.392,1
0.6,0.113,0.678,74.768,3.113,-44.8,1
0.653,0.155,0.667,70.801,1.16,-38.086,1
0.663,0.087,0.638,71.228,-0.061,-31.25,1
0.646,-0.049,0.661,62.744,-0.305,-22.766,1
0.636,-0.077,0.675,41.87,-1.465,-11.841,1
0.629,0.001,0.686,17.09,-3.662,-1.831,1
0.588,0.059,0.693,-2.93,-5.798,6.47,1
0.561,0.115,0.698,-18.616,-6.897,13,1
0.551,0.191,0.706,-33.02,-7.446,18.799,1
0.535,0.301,0.714,-42.236,-7.568,23.01,1
0.514,0.392,0.723,-42.542,-7.446,25.696,1
0.497,0.424,0.72,-36.499,-6.287,27.161,1
0.491,0.437,0.714,-29.358,-4.578,27.71,1
0.493,0.475,0.72,-23.804,-3.052,28.015,1
0.481,0.526,0.72,-18.921,-1.831,27.222,1
0.465,0.575,0.716,-14.465,-1.099,24.658,1
0.458,0.615,0.717,-11.353,-0.427,21.179,1
0.455,0.638,0.72,-9.338,-0.061,17.578,1
0.454,0.655,0.717,-7.935,0.244,14.16,1
0.462,0.661,0.718,-7.385,0.427,10.62,1
0.476,0.648,0.726,-7.08,0.305,7.202,1
0.487,0.61,0.729,-6.592,0.061,3.906,1
0.494,0.55,0.718,-5.249,-0.061,1.099,1
0.508,0.503,0.711,-3.784,-0.366,-0.732,1
0.516,0.475,0.709,-2.869,-0.732,-1.648,1
0.517,0.445,0.716,-2.93,-1.404,-2.258,1
0.517,0.423,0.716,-3.967,-2.136,-2.441,1
0.512,0.418,0.707,-5.188,-2.563,-2.319,1
0.505,0.412,0.691,-6.653,-2.808,-2.136,1
0.508,0.408,0.679,-8.606,-2.869,-1.587,1
0.509,0.405,0.675,-11.108,-3.418,-0.671,1
0.505,0.411,0.676,-14.038,-4.395,0.366,1
0.498,0.446,0.678,-15.93,-5.371,0.916,1
0.488,0.469,0.679,-15.991,-6.042,0.977,1
0.485,0.474,0.673,-15.259,-5.981,0.916,1
0.494,0.48,0.669,-14.038,-6.165,1.404,1
0.5,0.487,0.677,-12.695,-6.348,1.709,1
0.499,0.49,0.684,-11.23,-6.47,1.831,1
0.498,0.491,0.69,-9.827,-6.287,1.892,1
0.497,0.503,0.698,-7.751,-5.798,1.648,1
0.494,0.505,0.711,-5.493,-5.249,1.343,1
0.492,0.499,0.711,-3.967,-4.517,1.282,1
0.49,0.494,0.699,-3.479,-3.662,1.221,1
0.494,0.494,0.682,-3.54,-2.991,1.404,1
0.505,0.496,0.674,-4.517,-2.747,1.465,1
0.509,0.502,0.678,-5.432,-2.869,1.587,1
0.507,0.512,0.698,-5.493,-3.235,1.709,1
0.501,0.515,0.704,-4.883,-3.479,1.77,1
0.501,0.524,0.703,-3.967,-3.174,1.709,1
0.505,0.529,0.696,-2.563,-2.686,1.709,1
0.506,0.533,0.692,-1.77,-2.563,1.77,1
0.502,0.528,0.689,-1.465,-2.502,1.648,1
0.497,0.522,0.686,-0.732,-2.38,1.465,1
0.493,0.515,0.686,0.244,-2.441,1.404,1
0.488,0.511,0.687,0.732,-2.502,1.16,1
0.485,0.509,0.684,0.916,-2.258,0.977,1
0.485,0.509,0.678,0.977,-2.075,0.977,1
0.492,0.51,0.67,1.221,-1.892,0.977,1
0.499,0.512,0.669,1.404,-1.953,0.977,1
0.502,0.51,0.672,1.648,-2.38,1.038,1
0.505,0.506,0.677,2.136,-2.686,1.16,1
0.505,0.508,0.687,2.38,-3.052,1.099,1
0.112,1.725,0.454,-71.777,-16.785,51.697,1
0.069,2.004,0.511,-42.908,-11.047,28.87,1
0.072,2.188,0.573,-1.099,-1.404,2.686,1
0.117,2.077,0.597,56.641,8.789,-26.794,1
0.161,1.59,0.609,118.164,20.508,-50.598,1
0.251,1.212,0.581,162.476,33.081,-63.599,1
0.362,1.039,0.528,186.279,41.382,-70.435,1
0.428,0.88,0.493,200.623,44.617,-75.378,1
0.497,0.673,0.525,205.261,46.814,-76.782,1
0.558,0.549,0.549,200.317,46.021,-74.402,1
0.541,0.401,0.541,185.12,41.504,-70.435,1
0.48,0.394,0.548,158.691,35.828,-66.65,1
0.473,0.605,0.506,129.822,28.992,-65.308,1
0.439,0.61,0.54,109.253,21.301,-65.369,1
0.457,0.574,0.573,106.567,18.86,-62.988,1
0.461,0.419,0.631,109.375,19.348,-60.608,1
0.466,0.36,0.697,109.68,19.165,-56.091,1
0.463,0.292,0.663,114.319,19.043,-53.406,1
0.47,0.142,0.598,116.76,19.409,-49.316,1
0.509,0.013,0.532,109.619,19.836,-43.518,1
0.542,-0.074,0.464,91.919,16.357,-36.56,1
0.537,-0.152,0.452,67.993,9.705,-28.381,1
0.53,-0.232,0.496,45.776,3.052,-18.555,1
0.536,-0.324,0.577,21.057,-1.892,-6.897,1
0.554,-0.33,0.655,-10.254,-5.493,7.385,1
0.572,-0.31,0.651,-51.453,-8.118,23.071,1
0.565,-0.21,0.589,-99.915,-10.925,38.391,1
0.544,-0.027,0.471,-143.677,-15.808,51.514,1
0.516,0.155,0.352,-180.786,-22.095,60.181,1
0.485,0.338,0.299,-208.191,-28.992,67.383,1
0.458,0.561,0.333,-219.116,-34.485,74.89,1
0.434,0.76,0.428,-210.876,-36.926,80.078,1
0.391,0.943,0.516,-186.34,-36.255,81.055,1
0.333,1.099,0.569,-148.071,-32.837,77.087,1
0.303,1.166,0.574,-103.821,-27.039,70.007,1
0.308,1.165,0.575,-64.27,-20.081,63.721,1
0.338,1.122,0.615,-39.429,-14.038,56.641,1
0.335,1.11,0.714,-29.114,-10.498,47.058,1
0.27,1.162,0.782,-22.644,-6.714,34.79,1
0.282,1.302,0.749,-8.789,-0.916,18.86,1
0.33,1.522,0.686,16.235,3.845,-1.77,1
0.343,1.578,0.639,57.373,8.423,-23.071,1
0.341,1.311,0.614,100.342,14.282,-39.551,1
0.372,1.066,0.596,122.742,20.386,-47.241,1
0.421,0.915,0.616,124.878,23.743,-50.659,1
0.453,0.766,0.664,116.211,23.621,-53.284,1
0.455,0.554,0.679,104.431,21.606,-55.481,1
0.461,0.364,0.668,93.018,20.569,-53.833,1
0.502,0.229,0.665,78.857,20.386,-47.913,1
0.577,0.16,0.639,60.974,20.142,-38.635,1
0.615,0.138,0.579,44.8,17.334,-28.992,1
0.603,0.133,0.535,31.982,13.062,-20.203,1
0.582,0.135,0.511,21.423,9.399,-11.719,1
0.551,0.147,0.508,11.902,5.127,-3.601,1
0.504,0.212,0.528,1.587,1.099,4.15,1
0.465,0.342,0.559,-7.812,-2.38,10.62,1
0.428,0.449,0.585,-15.991,-5.249,14.343,1
0.4,0.532,0.606,-22.522,-6.836,15.93,1
0.385,0.607,0.626,-24.902,-7.446,16.296,1
0.384,0.64,0.63,-24.353,-7.019,15.442,1
0.392,0.642,0.621,-21.484,-5.859,14.221,1
0.41,0.641,0.605,-17.761,-4.7,12.817,1
0.429,0.632,0.604,-13.794,-3.845,11.047,1
0.441,0.628,0.622,-10.62,-3.723,9.033,1
0.449,0.612,0.65,-8.484,-3.601,7.507,1
0.458,0.594,0.68,-8.484,-3.357,6.714,1
0.464,0.609,0.709,-8.85,-2.686,6.287,1
0.464,0.619,0.706,-8.362,-1.526,5.737,1
0.468,0.61,0.676,-7.385,-0.183,5.371,1
0.482,0.601,0.642,-7.08,0.977,5.554,1
0.488,0.599,0.621,-7.69,1.343,6.409,1
0.49,0.601,0.613,-8.728,1.099,7.263,1
0.488,0.618,0.609,-10.071,0.916,7.874,1
0.484,0.63,0.606,-9.888,0.61,7.874,1
0.474,0.626,0.617,-8.728,0.549,8.118,1
0.463,0.633,0.656,-8.728,0.732,8.423,1
0.452,0.633,0.685,-10.071,0.977,8.423,1
0.448,0.638,0.684,-11.353,1.831,8.301,1
0.446,0.654,0.661,-11.292,2.93,7.629,1
0.444,0.661,0.63,-9.094,3.723,6.042,1
0.44,0.649,0.6,-6.409,4.333,4.944,1
0.437,0.637,0.586,-4.7,4.578,4.028,1
0.436,0.613,0.584,-3.723,4.456,3.418,1
0.441,0.591,0.591,-3.662,4.089,3.235,1
0.444,0.589,0.597,-3.845,4.15,3.052,1
0.449,0.581,0.599,-2.808,4.028,2.808,1
0.451,0.567,0.602,-2.258,4.15,2.747,1
0.451,0.561,0.603,-3.54,3.906,3.357,1
0.454,0.557,0.6,-5.737,3.601,4.211,1
0.452,0.564,0.602,-7.446,3.052,5.005,1
0.452,0.574,0.599,-8.423,2.563,5.371,1
0.459,0.589,0.596,-9.888,1.831,5.859,1
0.461,0.603,0.6,-11.475,0.916,6.348,1
0.46,0.618,0.603,-12.512,0.244,6.47,1
0.451,0.643,0.608,-13,-0.427,6.836,1
0.455,0.656,0.612,-11.902,-0.488,6.409,1
0.459,0.662,0.616,-10.559,-0.427,5.92,1
0.452,0.675,0.611,-9.888,-0.183,5.432,1
0.451,0.686,0.599,-8.362,-0.122,4.761,1
0.455,0.686,0.594,-6.775,0,4.089,1
0.457,0.685,0.596,-5.31,-0.122,3.357,1
0.457,0.688,0.602,-4.395,-0.244,2.747,1
0.458,0.68,0.606,-3.296,-0.183,2.197,1
0.46,0.669,0.603,-2.747,0.061,1.648,1
0.465,0.668,0.594,-2.136,0.183,1.343,1
0.464,0.671,0.58,-0.977,0.183,1.038,1
0.463,0.668,0.573,0.793,0.183,0.549,1
0.461,0.66,0.578,2.502,-0.061,0.122,1
0.455,0.644,0.581,3.601,-0.183,-0.061,1
0.454,0.633,0.585,4.211,-0.305,-0.061,1
0.458,0.626,0.59,4.089,-0.61,0,1
0.461,0.624,0.61,3.845,-0.854,0.061,1
0.458,0.624,0.625,3.174,-1.099,0.244,1
0.455,0.622,0.624,2.869,-0.793,0.488,1
0.456,0.615,0.614,2.502,-0.366,0.916,1
0.452,0.618,0.597,1.953,-0.183,1.404,1
0.45,0.63,0.595,1.404,-0.305,1.709,1
0.443,0.635,0.608,0.732,-0.488,1.77,1
0.437,0.634,0.612,0.244,-0.549,1.892,1
-0.311,2.308,0.263,13.123,-29.907,17.334,1
-0.244,2.395,0.381,54.871,-21.057,-16.357,1
-0.141,1.912,0.448,98.999,-11.658,-49.133,1
-0.042,1.228,0.505,122.62,-2.014,-70.496,1
0.108,0.906,0.57,119.995,4.15,-79.102,1
0.247,0.804,0.628,120.85,6.897,-84.045,1
0.309,0.675,0.581,133.789,12.085,-87.158,1
0.333,0.717,0.459,145.813,17.212,-86.243,1
0.329,0.781,0.44,152.649,21.545,-82.214,1
0.402,0.698,0.408,156.494,27.405,-76.965,1
0.381,0.857,0.36,142.456,29.297,-71.045,1
0.318,1.054,0.312,122.498,24.719,-73.12,1
0.275,1.214,0.297,113.708,19.958,-78.796,1
0.252,1.004,0.332,116.516,18.555,-83.13,1
0.28,0.697,0.308,118.103,20.752,-78.979,1
0.342,0.367,0.303,110.718,22.278,-71.899,1
0.383,0.079,0.386,91.309,20.752,-60.242,1
0.455,-0.074,0.399,62.988,16.479,-49.072,1
0.504,-0.165,0.407,29.48,6.775,-39.124,1
0.512,-0.382,0.547,5.554,0.488,-24.658,1
0.528,-0.565,0.67,-15.198,0.366,-2.319,1
0.506,-0.566,0.649,-45.044,0.977,21.912,1
0.473,-0.36,0.559,-83.984,0.183,44.617,1
0.44,0.036,0.459,-114.075,-1.831,62.317,1
0.38,0.386,0.386,-128.174,-4.456,73.608,1
0.323,0.616,0.309,-130.493,-5.615,80.994,1
0.279,0.818,0.224,-125.793,-5.432,86.548,1
0.243,0.99,0.16,-117.188,-5.981,88.501,1
0.22,1.114,0.119,-108.032,-7.446,86.304,1
0.182,1.154,0.106,-98.572,-9.338,81.787,1
0.166,1.091,0.101,-87.219,-11.475,78.796,1
0.196,0.996,0.125,-78.491,-13.55,77.637,1
0.202,0.954,0.184,-78.186,-16.846,77.576,1
0.187,1.024,0.273,-81.604,-20.386,76.782,1
0.162,1.158,0.374,-81.116,-23.743,72.021,1
0.148,1.261,0.455,-78.247,-25.696,62.5,1
0.11,1.289,0.513,-71.472,-25.879,48.523,1
0.087,1.47,0.499,-61.89,-23.743,34.729,1
0.031,1.674,0.506,-41.809,-20.325,17.334,1
0.047,1.765,0.545,-18.555,-14.893,-4.822,1
0.073,1.871,0.575,13.245,-10.315,-29.236,1
0.09,1.705,0.539,52.917,-4.211,-52.551,1
0.119,1.373,0.513,87.585,5.432,-70.068,1
0.207,1.115,0.545,108.887,15.93,-77.698,1
0.288,0.857,0.572,113.77,23.254,-79.041,1
0.37,0.596,0.548,108.826,27.588,-76.538,1
0.462,0.394,0.453,96.985,30.518,-67.871,1
0.511,0.255,0.384,75.928,31.128,-54.321,1
0.529,0.401,0.291,50.781,27.771,-40.039,1
0.504,0.668,0.285,40.955,20.935,-31.799,1
0.453,0.777,0.282,50.11,17.273,-29.114,1
0.39,0.877,0.312,63.049,15.503,-26.245,1
0.356,0.766,0.342,73.12,15.991,-22.705,1
0.333,0.661,0.379,72.937,17.212,-17.578,1
0.327,0.71,0.471,64.209,15.991,-14.343,1
0.292,0.699,0.548,50.72,12.756,-13.611,1
0.288,0.563,0.545,36.194,10.437,-13,1
0.328,0.522,0.514,20.203,9.827,-9.46,1
0.369,0.519,0.506,5.676,8.667,-5.676,1
0.38,0.529,0.501,-3.052,6.592,-2.93,1
0.38,0.585,0.479,-6.775,5.31,0.183,1
0.373,0.645,0.453,-7.141,4.517,2.991,1
0.371,0.686,0.433,-6.042,4.456,5.737,1
0.369,0.701,0.427,-3.967,3.967,7.996,1
0.36,0.709,0.441,-2.869,2.747,9.827,1
0.346,0.744,0.461,-4.761,1.038,10.803,1
0.331,0.793,0.481,-8.423,-1.099,10.62,1
0.318,0.823,0.503,-11.536,-2.991,9.583,1
0.317,0.829,0.512,-12.207,-3.784,8.301,1
0.325,0.82,0.516,-10.742,-3.662,7.08,1
0.334,0.788,0.519,-8.362,-2.93,6.042,1
0.346,0.735,0.512,-6.348,-1.648,5.005,1
0.367,0.691,0.488,-4.822,-0.427,4.456,1
0.373,0.7,0.462,-3.906,-0.244,4.517,1
0.379,0.723,0.464,-2.563,-0.61,4.333,1
0.352,0.736,0.492,-1.587,-0.732,5.493,1
0.354,0.733,0.519,-2.808,0,6.592,1
0.356,0.741,0.528,-7.019,0.671,7.629,1
0.346,0.753,0.52,-12.268,1.16,8.667,1
0.338,0.768,0.502,-16.174,1.831,8.789,1
0.344,0.78,0.475,-17.639,1.892,8.24,1
0.331,0.799,0.452,-17.578,2.319,7.874,1
0.313,0.808,0.437,-16.296,2.319,6.897,1
0.314,0.787,0.434,-14.893,2.563,6.165,1
0.325,0.775,0.444,-14.404,2.869,5.859,1
0.316,0.783,0.456,-15.076,2.93,5.737,1
0.311,0.783,0.478,-16.174,2.869,5.066,1
0.312,0.792,0.502,-18.311,2.747,4.211,1
0.315,0.789,0.501,-21.851,2.563,2.991,1
0.32,0.798,0.48,-25.146,2.258,1.831,1
0.334,0.816,0.45,-26.062,2.014,0.854,1
0.353,0.813,0.425,-24.109,1.587,-0.061,1
0.37,0.81,0.414,-20.813,1.343,-0.488,1
0.379,0.816,0.412,-17.761,0.305,-0.732,1
0.38,0.82,0.412,-14.954,-0.916,-1.099,1
0.379,0.82,0.409,-12.634,-2.197,-1.099,1
0.377,0.817,0.4,-10.803,-3.052,-0.793,1
0.378,0.813,0.388,-10.559,-3.845,0,1
0.377,0.809,0.377,-11.353,-5.005,0.793,1
0.374,0.804,0.393,-13.367,-6.409,1.526,1
0.378,0.816,0.438,-16.357,-7.385,2.197,1
0.387,0.817,0.475,-19.897,-7.874,2.869,1
0.394,0.848,0.5,-22.156,-7.629,3.418,1
0.396,0.885,0.507,-21.545,-6.714,3.418,1
0.391,0.891,0.505,-17.883,-4.883,2.93,1
0.381,0.893,0.486,-12.695,-2.686,2.197,1
0.376,0.891,0.452,-8.057,-0.977,1.465,1
0.375,0.886,0.414,-4.333,0.305,0.977,1
0.376,0.876,0.386,-2.014,0.549,0.244,1
0.375,0.857,0.379,-1.587,0.366,0.122,1
0.368,0.854,0.383,-1.038,-0.549,0.366,1
0.359,0.848,0.402,-0.671,-0.977,0.305,1
0.358,0.833,0.42,-0.488,-1.282,0.427,1
0.362,0.822,0.433,-0.854,-0.854,0.854,1
0.361,0.818,0.437,-1.343,-0.244,1.16,1
0.358,0.815,0.43,-0.854,0,1.404,1
0.352,0.815,0.422,-0.488,0.244,1.282,1
0.349,0.811,0.41,-0.183,0.366,1.282,1
0.347,0.805,0.398,-0.122,0,1.465,1
0.171,1.546,0.236,-27.466,5.737,81.848,1
0.141,1.69,0.232,-9.094,1.709,53.894,1
0.093,2.004,0.335,11.536,-2.625,24.414,1
0.06,2.117,0.426,40.283,-3.601,-6.042,1
0.044,1.974,0.5,70.984,-1.526,-34.058,1
0.092,1.664,0.531,97.412,3.662,-54.749,1
0.159,1.281,0.582,108.826,9.033,-68.604,1
0.228,0.996,0.662,105.164,12.268,-79.773,1
0.277,0.8,0.782,95.215,14.343,-87.524,1
0.28,0.633,0.903,85.999,15.259,-92.163,1
0.249,0.552,0.931,74.646,14.954,-94.91,1
0.225,0.642,0.842,67.505,15.32,-97.534,1
0.261,0.746,0.706,73.73,18.738,-99.182,1
0.358,0.56,0.589,85.815,24.963,-98.694,1
0.446,0.333,0.487,84.717,28.32,-94.543,1
0.51,0.287,0.396,78.43,26.917,-86.243,1
0.53,0.154,0.372,76.904,22.766,-77.332,1
0.566,-0.039,0.347,67.993,17.151,-68.115,1
0.6,-0.088,0.349,57.678,10.864,-56.335,1
0.595,-0.099,0.379,51.453,4.028,-43.945,1
0.593,-0.181,0.459,43.701,-2.075,-30.823,1
0.626,-0.176,0.547,31.494,-5.432,-15.991,1
0.634,-0.131,0.601,19.531,-6.836,-0.488,1
0.615,-0.131,0.625,-1.099,-7.874,15.259,1
0.595,-0.017,0.632,-32.959,-7.996,30.884,1
0.56,0.14,0.607,-65.491,-9.155,43.701,1
0.528,0.259,0.549,-91.492,-11.414,53.223,1
0.506,0.373,0.494,-108.032,-13.794,60.791,1
0.486,0.478,0.466,-115.479,-14.771,67.749,1
0.468,0.467,0.444,-117.065,-14.954,75.378,1
0.475,0.402,0.397,-119.995,-15.015,84.351,1
0.513,0.458,0.382,-127.502,-15.625,92.59,1
0.481,0.658,0.427,-129.333,-18.433,98.145,1
0.407,0.923,0.474,-121.155,-20.508,98.999,1
0.309,1.037,0.536,-103.76,-18.433,95.459,1
0.26,1.056,0.573,-87.524,-12.939,90.393,1
0.245,1.157,0.569,-71.655,-7.263,84.717,1
0.237,1.288,0.533,-52.246,-2.808,74.219,1
0.209,1.503,0.537,-30.457,-1.282,58.716,1
0.144,1.558,0.577,-3.967,0,37.231,1
0.136,1.603,0.609,16.785,2.38,15.259,1
0.133,1.652,0.624,35.095,5.554,-4.333,1
0.142,1.534,0.606,51.88,8.789,-22.034,1
0.2,1.328,0.597,64.88,12.146,-36.194,1
0.236,1.082,0.608,70.618,13.306,-46.631,1
0.265,0.885,0.596,68.665,13.367,-54.199,1
0.297,0.757,0.551,62.988,13.611,-58.35,1
0.341,0.663,0.516,57.678,13.428,-59.814,1
0.399,0.63,0.501,51.941,12.451,-59.387,1
0.44,0.591,0.492,49.316,10.864,-57.312,1
0.471,0.519,0.452,48.767,9.277,-54.138,1
0.486,0.478,0.449,44.312,6.47,-49.316,1
0.497,0.45,0.456,40.955,3.662,-45.044,1
0.498,0.411,0.487,39.124,1.587,-40.222,1
0.509,0.379,0.528,37.598,-0.061,-34.851,1
0.487,0.383,0.565,34.607,-2.625,-28.992,1
0.473,0.393,0.577,32.288,-3.052,-22.705,1
0.478,0.409,0.58,29.053,-2.441,-16.296,1
0.486,0.408,0.58,26.062,-1.038,-10.01,1
0.486,0.383,0.583,22.644,-0.061,-4.15,1
0.478,0.362,0.598,16.113,0.61,1.709,1
0.471,0.375,0.612,6.226,0.854,7.629,1
0.46,0.427,0.607,-4.761,0.305,12.756,1
0.448,0.491,0.598,-14.709,-0.244,16.418,1
0.439,0.565,0.592,-21.545,-0.977,18.982,1
0.428,0.638,0.591,-23.071,-1.16,20.447,1
0.413,0.685,0.586,-21.729,-0.793,20.874,1
0.409,0.718,0.581,-19.348,-0.366,20.63,1
0.407,0.75,0.576,-16.357,0.183,19.897,1
0.401,0.768,0.581,-13.855,0.549,18.738,1
0.393,0.772,0.579,-12.329,0.854,16.724,1
0.393,0.766,0.576,-11.475,0.916,14.404,1
0.4,0.758,0.58,-10.864,0.977,12.146,1
0.412,0.759,0.582,-9.644,0.793,9.949,1
0.41,0.768,0.585,-7.08,0.671,7.507,1
0.401,0.763,0.582,-3.906,0.488,5.005,1
0.397,0.746,0.576,-0.427,0.916,3.113,1
0.411,0.721,0.585,1.587,1.282,1.953,1
0.423,0.698,0.595,2.258,1.038,1.221,1
0.423,0.687,0.598,2.258,0.793,0.488,1
0.417,0.671,0.595,1.526,0.488,0.061,1
0.414,0.657,0.589,0.671,0.427,0.122,1
0.412,0.648,0.578,-0.305,0.671,0.183,1
0.413,0.64,0.567,-1.282,0.61,0.427,1
0.425,0.632,0.571,-2.869,0.183,0.793,1
0.434,0.633,0.576,-4.456,-0.488,1.404,1
0.432,0.655,0.587,-4.761,-0.793,1.77,1
0.424,0.666,0.588,-3.113,-1.099,1.77,1
0.417,0.659,0.58,-1.465,-0.732,2.014,1
0.418,0.655,0.574,-0.61,-0.305,2.563,1
0.417,0.659,0.568,-0.854,-0.305,2.869,1
0.415,0.665,0.564,-1.648,-0.671,3.174,1
0.416,0.672,0.564,-2.502,-0.977,3.357,1
0.416,0.678,0.567,-2.747,-1.343,3.662,1
0.416,0.684,0.57,-2.808,-1.77,3.845,1
0.414,0.688,0.577,-2.258,-1.587,3.784,1
0.409,0.7,0.584,-1.038,-1.038,3.601,1
0.408,0.706,0.587,0.366,-0.549,3.418,1
0.408,0.708,0.583,1.465,0,2.869,1
0.409,0.696,0.587,2.014,0.549,2.258,1
0.413,0.68,0.589,1.709,0.854,1.892,1
0.416,0.671,0.589,0.671,1.221,1.526,1
0.417,0.683,0.583,-0.244,1.465,1.526,1
0.415,0.683,0.576,0.122,1.526,1.282,1
0.414,0.673,0.571,0.244,1.709,1.038,1
0.418,0.676,0.568,-0.366,1.648,1.282,1
0.419,0.68,0.57,-0.793,1.648,1.648,1
0.419,0.676,0.578,-1.038,1.709,1.709,1
0.416,0.677,0.586,-1.282,1.77,1.892,1
0.414,0.682,0.589,-1.404,2.075,1.77,1
0.41,0.691,0.587,-1.709,2.38,1.587,1
0.411,0.689,0.585,-2.258,2.747,1.587,1
0.414,0.685,0.581,-2.502,3.113,1.587,1
0.416,0.694,0.574,-1.892,3.601,1.343,1
0.415,0.701,0.566,-0.488,4.089,0.916,1
0.417,0.7,0.557,0.854,4.639,0.549,1
0.423,0.686,0.555,2.136,4.761,0.488,1
0.429,0.674,0.552,3.113,4.639,0.671,1
0.433,0.669,0.549,3.296,4.089,1.16,1
0.014,1.966,0.509,16.907,-14.343,-21.545,1
0.024,1.828,0.518,91.064,-2.808,-47.058,1
0.049,1.493,0.509,157.898,12.695,-67.932,1
0.111,1.24,0.497,200.562,26.978,-80.566,1
0.182,1.084,0.464,218.079,36.804,-88.013,1
0.216,0.943,0.424,217.712,41.138,-92.773,1
0.273,0.766,0.389,205.2,43.457,-94.543,1
0.365,0.697,0.441,171.448,41.016,-94.543,1
0.373,0.719,0.522,138.245,33.569,-94.116,1
0.354,0.552,0.56,114.258,28.503,-93.506,1
0.334,0.455,0.566,82.153,24.719,-91.187,1
0.354,0.66,0.518,57.007,21.545,-87.524,1
0.37,0.766,0.44,58.289,19.287,-85.144,1
0.402,0.45,0.424,76.721,20.264,-80.872,1
0.453,0.061,0.383,80.566,25.635,-69.885,1
0.555,-0.061,0.339,67.993,25.818,-54.932,1
0.606,-0.017,0.324,59.326,17.212,-41.565,1
0.611,-0.094,0.366,51.27,9.338,-29.053,1
0.604,-0.227,0.398,36.56,3.174,-15.503,1
0.59,-0.275,0.422,14.954,-1.343,0.366,1
0.556,-0.25,0.435,-15.137,-4.517,18.311,1
0.519,-0.146,0.434,-56.458,-7.751,35.828,1
0.486,0.051,0.408,-98.389,-10.742,50.903,1
0.453,0.268,0.366,-125.427,-13.672,63.782,1
0.411,0.406,0.344,-135.62,-16.052,73.669,1
0.381,0.497,0.337,-137.939,-16.968,82.092,1
0.356,0.606,0.345,-136.414,-16.235,89.905,1
0.318,0.686,0.345,-129.822,-14.893,96.985,1
0.292,0.756,0.345,-118.347,-13.184,102.234,1
0.317,0.845,0.344,-105.53,-12.268,104.553,1
0.28,1.042,0.353,-89.905,-13.184,103.821,1
0.229,1.236,0.403,-67.932,-13.55,98.633,1
0.22,1.245,0.422,-45.593,-12.451,88.623,1
0.164,1.101,0.449,-33.447,-10.681,78.064,1
0.131,1.106,0.446,-35.828,-8.667,68.054,1
0.126,1.26,0.486,-45.959,-8.667,56.274,1
0.095,1.432,0.479,-54.688,-9.583,39.795,1
0.091,1.696,0.496,-56.519,-10.132,22.095,1
0.091,1.933,0.562,-37.354,-9.338,0.916,1
0.088,1.951,0.628,6.714,-4.395,-21.667,1
0.073,1.781,0.717,57.861,4.211,-43.213,1
0.081,1.513,0.724,100.952,15.808,-61.157,1
0.143,1.269,0.703,123.108,26.428,-74.524,1
0.218,1.099,0.688,126.587,33.02,-83.557,1
0.243,0.937,0.657,118.591,35.217,-89.661,1
0.305,0.873,0.525,101.257,34.424,-93.506,1
0.352,0.803,0.46,79.041,31.982,-95.154,1
0.365,0.711,0.442,55.481,30.151,-94.299,1
0.438,0.658,0.375,32.288,27.527,-91.064,1
0.468,0.787,0.346,20.081,21.179,-87.952,1
0.474,0.84,0.335,39.063,15.442,-87.524,1
0.476,0.552,0.349,72.205,14.221,-86.975,1
0.514,0.285,0.29,95.947,16.052,-81.848,1
0.558,0.161,0.232,104.248,14.587,-73.425,1
0.588,0.094,0.256,104.431,10.986,-61.584,1
0.604,0.049,0.309,100.159,6.042,-49.927,1
0.594,0.019,0.366,91.492,0.549,-38.574,1
0.569,0.017,0.413,81.665,-4.761,-26.245,1
0.554,0,0.449,70.557,-7.996,-12.817,1
0.548,-0.045,0.509,49.377,-9.705,-0.122,1
0.521,-0.01,0.644,18.311,-11.658,13.428,1
0.498,0.117,0.732,-14.038,-13.184,25.818,1
0.486,0.257,0.767,-40.1,-12.695,34.79,1
0.468,0.369,0.746,-57.129,-10.071,40.405,1
0.453,0.483,0.68,-66.895,-6.531,43.518,1
0.438,0.604,0.594,-70.862,-3.113,45.837,1
0.42,0.76,0.522,-71.045,-1.282,46.326,1
0.395,0.919,0.47,-66.04,-0.671,43.823,1
0.367,1.023,0.444,-55.725,-0.488,39.673,1
0.349,1.053,0.444,-42.419,-0.061,34.485,1
0.342,1.036,0.465,-28.809,0.671,29.419,1
0.363,1.016,0.491,-17.029,1.77,24.719,1
0.389,0.99,0.527,-7.446,2.808,20.203,1
0.409,0.951,0.574,-1.587,3.174,15.198,1
0.411,0.915,0.606,2.258,3.479,10.132,1
0.41,0.863,0.613,6.409,4.456,5.615,1
0.419,0.799,0.597,10.437,5.92,2.014,1
0.428,0.741,0.571,14.221,7.568,-0.244,1
0.437,0.689,0.546,17.273,8.484,-1.282,1
0.443,0.645,0.534,18.555,8.667,-1.587,1
0.44,0.613,0.529,18.127,8.301,-0.916,1
0.435,0.596,0.534,16.785,7.629,0.183,1
0.427,0.582,0.559,14.343,6.653,1.526,1
0.421,0.57,0.583,10.315,6.104,3.235,1
0.426,0.57,0.589,5.798,6.104,5.005,1
0.433,0.567,0.584,1.282,6.165,6.287,1
0.441,0.585,0.573,-3.235,5.737,7.996,1
0.437,0.633,0.561,-7.202,5.066,9.033,1
0.433,0.69,0.546,-10.01,4.272,9.277,1
0.428,0.72,0.533,-10.315,3.296,8.789,1
0.422,0.726,0.535,-9.216,2.502,8.301,1
0.419,0.706,0.549,-8.24,2.075,8.057,1
0.432,0.686,0.56,-8.301,1.892,8.118,1
0.446,0.707,0.56,-8.972,1.587,8.362,1
0.441,0.737,0.552,-9.277,0.793,7.324,1
0.435,0.746,0.543,-9.277,0.427,6.042,1
0.432,0.75,0.532,-8.911,0.427,5.432,1
0.435,0.749,0.529,-8.484,0.366,5.005,1
0.434,0.744,0.522,-7.751,0.244,4.517,1
0.432,0.743,0.515,-6.348,0.244,4.089,1
0.429,0.747,0.506,-4.395,0.244,3.479,1
0.429,0.745,0.508,-2.319,0.305,2.625,1
0.428,0.729,0.522,-0.916,0.061,2.014,1
0.436,0.718,0.523,-0.183,-0.122,1.953,1
0.439,0.714,0.521,0.488,-0.366,1.892,1
0.438,0.707,0.543,0.671,-0.732,1.953,1
0.437,0.694,0.573,0.366,-0.854,2.136,1
0.434,0.685,0.579,-0.732,-0.977,2.563,1
0.437,0.681,0.561,-1.648,-0.427,2.808,1
0.44,0.691,0.537,-2.686,0,3.174,1
0.447,0.701,0.523,-3.296,0.061,3.662,1
0.447,0.702,0.519,-3.357,-0.061,4.211,1
0.439,0.693,0.522,-3.296,-0.244,4.639,1
0.424,0.688,0.52,-3.784,-0.366,5.066,1
0.41,0.699,0.503,-4.211,0.061,5.31,1
0.415,0.713,0.49,-3.845,0.244,5.371,1
0.427,0.72,0.493,-3.235,0.061,5.493,1
0.427,0.727,0.502,-2.38,-0.183,5.615,1
0.418,0.732,0.511,-1.16,-0.549,5.554,1
-0.153,2.14,0.184,-40.1,-34.119,13.184,1
-0.198,2.375,0.323,5.066,-31.006,-16.968,1
-0.197,2.275,0.402,66.772,-22.278,-50.903,1
-0.159,1.888,0.423,126.221,-10.01,-81.97,1
-0.084,1.581,0.491,171.753,1.404,-104.309,1
0.009,1.359,0.515,211.06,13.062,-120.361,1
0.117,1.059,0.521,240.479,24.109,-131.409,1
0.224,0.7,0.483,251.77,33.569,-135.803,1
0.311,0.208,0.377,219.971,38.818,-132.507,1
0.469,-0.098,0.396,138.733,38.33,-121.46,1
0.558,0.146,0.483,53.284,28.503,-106.995,1
0.516,0.469,0.499,-3.601,15.564,-100.525,1
0.455,0.551,0.486,-32.227,6.592,-97.351,1
0.492,0.626,0.386,-44.189,5.859,-90.942,1
0.47,0.584,0.379,-43.152,6.714,-83.069,1
0.498,0.466,0.36,-35.706,7.202,-74.341,1
0.532,0.383,0.363,-23.804,6.531,-67.322,1
0.529,0.296,0.279,-7.202,3.113,-61.951,1
0.537,0.08,0.225,11.353,-1.587,-55.664,1
0.558,-0.04,0.281,26.611,-4.822,-43.762,1
0.557,-0.111,0.329,37.048,-7.629,-29.358,1
0.548,-0.276,0.396,42.053,-9.583,-12.817,1
0.577,-0.477,0.495,30.945,-9.338,8.057,1
0.596,-0.45,0.623,0,-7.507,33.508,1
0.564,-0.255,0.743,-33.936,-6.409,56.702,1
0.513,-0.115,0.796,-63.965,-3.906,73.059,1
0.475,-0.005,0.697,-90.454,0.183,86.426,1
0.446,0.25,0.542,-112.793,4.639,98.694,1
0.377,0.61,0.405,-121.399,6.775,107.3,1
0.319,0.867,0.245,-105.896,7.629,109.68,1
0.288,0.977,0.122,-72.998,9.155,108.459,1
0.267,1.066,0.056,-37.537,10.498,107.056,1
0.257,1.1,-0.003,-9.277,9.888,105.896,1
0.259,1.127,0.032,10.864,5.676,103.394,1
0.288,1.122,0.11,21.301,0.244,99.487,1
0.297,1.131,0.212,23.499,-6.104,93.994,1
0.25,1.089,0.28,17.517,-12.695,84.9,1
0.188,1.19,0.398,0.122,-18.86,73.853,1
0.109,1.445,0.497,-21.301,-24.902,59.082,1
0.002,1.622,0.651,-38.086,-26.855,37.537,1
0.026,1.886,0.802,-49.927,-23.071,13.794,1
0.071,2.168,0.891,-38.757,-16.235,-8.057,1
0.057,2.086,0.967,13.672,-5.31,-34.973,1
0.075,1.705,0.866,76.172,11.719,-61.34,1
0.162,1.282,0.716,119.202,27.893,-77.515,1
0.272,1.033,0.616,138.367,38.879,-84.717,1
0.338,0.868,0.539,141.968,43.213,-88.562,1
0.373,0.784,0.498,117.92,40.894,-90.698,1
0.37,0.771,0.451,85.815,35.645,-90.637,1
0.427,0.828,0.335,72.693,30.701,-92.651,1
0.463,0.806,0.282,75.684,25.696,-95.093,1
0.462,0.636,0.307,85.693,23.315,-93.14,1
0.494,0.545,0.354,80.75,22.522,-87.036,1
0.505,0.616,0.454,89.417,18.677,-80.078,1
0.492,0.402,0.509,109.619,19.714,-74.951,1
0.523,0.157,0.541,113.892,22.644,-66.895,1
0.577,0.098,0.565,104.187,23.56,-55.969,1
0.605,-0.007,0.52,91.309,20.569,-44.922,1
0.624,-0.103,0.505,77.209,15.381,-34.546,1
0.636,-0.085,0.509,63.538,10.681,-23.743,1
0.634,-0.105,0.487,46.936,5.554,-12.512,1
0.627,-0.104,0.461,24.292,1.16,0.122,1
0.603,-0.047,0.462,1.465,-2.747,13.245,1
0.557,0.082,0.491,-19.165,-6.348,25.085,1
0.511,0.201,0.542,-34.607,-8.728,33.691,1
0.476,0.315,0.593,-44.128,-10.132,39.978,1
0.442,0.431,0.612,-48.462,-10.62,43.823,1
0.405,0.561,0.611,-49.255,-10.742,45.349,1
0.384,0.67,0.595,-47.852,-9.46,45.044,1
0.374,0.75,0.594,-46.265,-8.118,43.457,1
0.364,0.834,0.601,-46.021,-7.141,40.71,1
0.367,0.932,0.619,-44.861,-5.737,36.255,1
0.38,1.008,0.632,-40.466,-4.7,30.212,1
0.395,1.051,0.631,-31.372,-3.296,23.132,1
0.403,1.054,0.626,-19.287,-1.465,15.686,1
0.413,1.015,0.626,-6.958,0.549,8.484,1
0.421,0.948,0.619,2.869,2.319,2.197,1
0.433,0.856,0.605,9.766,3.662,-2.93,1
0.447,0.785,0.599,15.442,4.7,-6.653,1
0.465,0.719,0.595,19.104,5.127,-9.399,1
0.48,0.638,0.601,20.569,5.371,-11.292,1
0.496,0.582,0.601,21.24,5.432,-11.597,1
0.504,0.553,0.599,21.179,5.31,-11.169,1
0.506,0.527,0.599,20.02,5.127,-10.071,1
0.508,0.501,0.59,18.188,4.639,-8.057,1
0.506,0.481,0.584,15.747,4.089,-5.737,1
0.499,0.474,0.582,11.902,3.235,-3.113,1
0.489,0.475,0.577,6.531,2.38,-0.488,1
0.48,0.488,0.573,0.977,1.404,2.319,1
0.468,0.526,0.572,-3.662,0.549,4.578,1
0.458,0.577,0.568,-6.836,0.061,5.859,1
0.455,0.619,0.56,-8.057,-0.61,6.165,1
0.457,0.651,0.555,-7.385,-1.099,6.042,1
0.456,0.665,0.57,-5.798,-1.404,5.615,1
0.453,0.665,0.587,-4.028,-1.343,5.127,1
0.458,0.672,0.598,-2.38,-1.465,4.7,1
0.458,0.684,0.612,-1.221,-1.526,3.967,1
0.458,0.688,0.61,-0.61,-1.404,2.991,1
0.465,0.692,0.598,-0.061,-1.343,2.014,1
0.473,0.694,0.589,0.916,-1.526,0.916,1
0.475,0.693,0.589,2.197,-1.709,-0.183,1
0.475,0.681,0.595,3.418,-1.831,-0.854,1
0.479,0.665,0.609,4.211,-1.831,-1.404,1
0.489,0.649,0.609,4.822,-1.587,-1.77,1
0.492,0.631,0.604,5.005,-1.709,-1.77,1
0.492,0.611,0.597,4.333,-1.77,-1.526,1
0.497,0.602,0.585,3.662,-1.953,-0.977,1
0.501,0.606,0.582,3.052,-2.38,0.122,1
0.494,0.611,0.583,2.686,-2.991,0.854,1
0.48,0.62,0.587,2.502,-3.479,1.282,1
0.47,0.626,0.596,2.502,-3.601,1.831,1
0.463,0.63,0.601,2.686,-3.601,2.319,1
0.458,0.626,0.61,2.625,-3.418,2.625,1
0.453,0.612,0.611,2.136,-3.174,2.808,1
0.451,0.604,0.602,1.038,-2.563,3.052,1
0.456,0.606,0.597,-0.244,-2.319,3.052,1
0.453,0.613,0.589,-1.16,-2.136,3.296,1
0.447,0.604,0.589,-1.282,-1.77,3.418,1
0.448,0.59,0.589,-1.587,-1.221,3.906,1
0.101,1.66,0.421,-21.79,-26.917,52.124,1
0.061,1.664,0.527,-8.484,-22.766,34.058,1
0.045,1.595,0.641,-1.953,-17.334,17.578,1
0.037,1.799,0.7,0.122,-11.169,-2.197,1
0.048,2.199,0.73,12.085,-6.653,-30.273,1
0.042,2.069,0.787,50.964,-2.319,-66.406,1
0.07,1.556,0.662,93.994,7.751,-91.614,1
0.183,1.179,0.505,115.112,19.104,-100.403,1
0.302,1.028,0.416,127.441,25.452,-104.126,1
0.362,0.847,0.393,141.174,26.733,-108.337,1
0.353,0.562,0.432,139.343,25.818,-108.398,1
0.376,0.739,0.474,115.112,23.01,-105.713,1
0.345,0.901,0.453,94.604,17.212,-109.619,1
0.298,0.856,0.463,83.435,13.245,-114.075,1
0.282,1.012,0.539,82.703,11.902,-117.371,1
0.285,0.738,0.552,101.746,13.062,-120.3,1
0.383,0.438,0.489,115.356,19.958,-114.38,1
0.433,0.225,0.415,112.244,22.949,-109.985,1
0.46,0.003,0.371,95.276,18.799,-101.074,1
0.519,-0.188,0.35,78.43,15.93,-88.562,1
0.609,-0.462,0.36,65.063,11.963,-73.486,1
0.68,-0.574,0.41,44.312,7.69,-54.749,1
0.709,-0.583,0.456,18.921,1.404,-35.034,1
0.696,-0.566,0.491,-5.92,-3.845,-13.428,1
0.689,-0.543,0.505,-33.081,-6.836,9.583,1
0.655,-0.455,0.468,-69.397,-7.629,33.569,1
0.607,-0.223,0.432,-114.746,-9.094,56.335,1
0.552,0.098,0.436,-155.64,-12.024,74.219,1
0.493,0.384,0.432,-175.11,-15.32,88.013,1
0.465,0.594,0.395,-175.293,-15.869,97.595,1
0.439,0.779,0.351,-163.513,-14.16,103.76,1
0.378,0.972,0.36,-139.038,-11.719,106.567,1
0.337,1.116,0.368,-103.516,-8.118,105.835,1
0.34,1.185,0.341,-62.073,-4.333,102.417,1
0.336,1.231,0.283,-24.841,-1.831,97.107,1
0.32,1.334,0.302,5.493,-0.427,88.684,1
0.299,1.344,0.425,31.372,-0.793,75.928,1
0.257,1.086,0.648,44.006,0.305,63.171,1
0.232,0.77,0.871,30.518,5.31,58.35,1
0.233,0.784,0.902,-3.845,11.108,58.289,1
0.21,1.032,0.787,-27.527,13.184,48.401,1
0.24,1.4,0.643,-23.987,13.123,22.034,1
0.252,1.832,0.608,-5.737,10.132,-6.653,1
0.215,2.025,0.643,28.259,10.498,-32.41,1
0.16,1.928,0.669,70.923,16.479,-52.246,1
0.156,1.652,0.691,110.84,25.635,-68.298,1
0.221,1.294,0.685,138.55,35.828,-79.285,1
0.315,0.926,0.602,148.682,43.152,-85.938,1
0.391,0.485,0.462,135.62,45.41,-87.891,1
0.483,0.411,0.375,96.375,42.725,-83.74,1
0.56,0.583,0.333,56.641,35.278,-81.177,1
0.565,0.595,0.323,39.246,25.146,-80.811,1
0.538,0.462,0.328,43.701,17.517,-79.407,1
0.572,0.248,0.359,52.368,14.038,-74.585,1
0.605,0.102,0.423,52.917,10.986,-65.796,1
0.609,0.049,0.517,49.316,5.92,-55.725,1
0.596,-0.021,0.572,45.654,2.625,-45.349,1
0.592,-0.108,0.591,41.687,1.221,-33.264,1
0.601,-0.121,0.589,34.119,0.549,-19.714,1
0.62,-0.074,0.565,21.118,0,-6.775,1
0.61,0.018,0.539,3.601,-2.258,5.066,1
0.574,0.196,0.53,-15.015,-5.676,14.587,1
0.527,0.35,0.537,-26.489,-8.911,20.386,1
0.501,0.453,0.533,-28.442,-10.01,23.987,1
0.482,0.501,0.527,-25.269,-9.827,26.062,1
0.477,0.552,0.537,-24.17,-9.094,28.137,1
0.468,0.655,0.559,-28.015,-8.911,29.358,1
0.45,0.753,0.577,-30.64,-9.399,28.137,1
0.424,0.811,0.612,-28.992,-9.338,25.269,1
0.412,0.816,0.647,-26.489,-8.057,22.095,1
0.414,0.829,0.646,-23.743,-5.92,19.47,1
0.424,0.851,0.623,-18.921,-3.784,15.808,1
0.436,0.865,0.588,-13.184,-2.197,11.353,1
0.445,0.855,0.572,-6.592,-1.099,6.836,1
0.458,0.827,0.578,-0.549,-0.366,2.93,1
0.47,0.781,0.598,4.395,0.183,-0.244,1
0.473,0.722,0.616,8.118,0.671,-2.502,1
0.477,0.672,0.621,10.803,1.221,-3.479,1
0.477,0.624,0.632,12.39,1.77,-4.456,1
0.48,0.555,0.637,12.512,2.686,-4.822,1
0.497,0.505,0.619,10.01,3.906,-3.601,1
0.511,0.512,0.589,5.798,4.578,-2.197,1
0.512,0.528,0.559,2.625,4.7,-0.916,1
0.504,0.538,0.54,0.793,4.517,0.488,1
0.498,0.549,0.534,-0.366,4.028,1.892,1
0.491,0.557,0.551,-0.793,3.174,2.93,1
0.493,0.559,0.576,-1.465,2.502,3.784,1
0.492,0.556,0.595,-2.625,1.831,4.7,1
0.49,0.568,0.598,-4.395,1.16,5.493,1
0.481,0.583,0.592,-6.042,0.854,5.798,1
0.478,0.585,0.582,-6.165,0.671,5.981,1
0.485,0.584,0.569,-4.395,0.977,5.798,1
0.488,0.59,0.562,-1.648,1.221,5.859,1
0.494,0.608,0.56,-0.488,1.648,6.042,1
0.493,0.637,0.562,-0.244,1.831,5.92,1
0.497,0.67,0.564,-0.916,1.587,5.798,1
0.502,0.693,0.567,-1.526,0.61,5.249,1
0.501,0.71,0.582,-1.282,-0.488,4.333,1
0.508,0.724,0.604,-1.77,-1.343,3.601,1
0.505,0.73,0.616,-1.77,-2.075,2.441,1
0.494,0.724,0.611,-0.427,-2.197,1.038,1
0.484,0.705,0.602,1.16,-1.77,-0.061,1
0.481,0.687,0.601,2.38,-1.404,-0.671,1
0.479,0.659,0.612,3.418,-1.099,-1.404,1
0.497,0.63,0.607,4.211,-0.488,-1.892,1
0.503,0.594,0.598,5.005,-0.305,-2.075,1
0.503,0.569,0.592,4.395,-0.122,-1.465,1
0.501,0.568,0.584,3.113,0.122,-0.183,1
0.498,0.558,0.578,2.258,0.183,0.916,1
0.491,0.549,0.581,1.099,0.244,2.38,1
0.483,0.551,0.581,-0.427,0.427,3.906,1
0.482,0.574,0.578,-2.136,0.854,5.066,1
0.474,0.602,0.57,-3.113,1.343,5.798,1
0.464,0.627,0.558,-3.418,1.343,6.042,1
0.457,0.655,0.552,-3.113,1.343,5.371,1
0.451,0.668,0.557,-2.136,1.404,4.395,1
0.451,0.668,0.563,-0.366,1.343,3.601,1
0.456,0.669,0.573,1.343,1.526,2.869,1
0.455,0.666,0.603,2.502,1.831,2.197,1
0.333,1.054,0.931,-61.89,-0.366,52.002,1
0.37,1.13,0.843,-37.598,6.165,43.213,1
0.395,1.142,0.783,-13.916,11.536,33.081,1
0.405,1.131,0.71,4.333,15.198,22.217,1
0.4,1.114,0.685,14.709,15.747,8.484,1
0.394,1.142,0.695,21.057,14.465,-6.653,1
0.366,1.188,0.706,32.166,12.878,-22.644,1
0.361,1.088,0.696,46.692,14.587,-36.865,1
0.379,0.906,0.708,59.326,17.212,-48.218,1
0.377,0.754,0.741,66.162,18.616,-58.35,1
0.379,0.65,0.753,66.345,19.531,-67.261,1
0.389,0.595,0.763,62.866,17.944,-75.623,1
0.399,0.488,0.724,60.425,15.259,-83.984,1
0.403,0.353,0.651,58.899,12.024,-91.064,1
0.449,0.284,0.585,63.782,7.935,-95.581,1
0.462,0.08,0.606,71.96,2.869,-97.412,1
0.453,-0.217,0.692,76.477,-1.16,-94.116,1
0.476,-0.274,0.735,75.073,-4.15,-85.51,1
0.496,-0.424,0.77,73.547,-5.737,-75.989,1
0.552,-0.637,0.786,66.04,-5.676,-62.561,1
0.634,-0.872,0.781,52.307,-5.676,-44.25,1
0.68,-1.032,0.778,24.841,-6.531,-22.949,1
0.691,-1.026,0.786,-13.184,-8.179,1.953,1
0.688,-0.791,0.833,-64.697,-11.108,25.024,1
0.626,-0.37,0.861,-107.117,-14.648,41.626,1
0.556,-0.093,0.797,-131.042,-16.235,51.575,1
0.513,0.031,0.738,-148.499,-15.015,59.814,1
0.487,0.163,0.721,-159.302,-11.902,69.397,1
0.485,0.313,0.704,-156.128,-7.874,78.308,1
0.477,0.397,0.695,-138.916,-3.357,84.229,1
0.467,0.535,0.766,-112.915,1.648,87.708,1
0.455,0.659,0.802,-76.904,7.629,87.952,1
0.437,0.677,0.768,-44.861,13.489,85.205,1
0.437,0.73,0.703,-23.987,17.334,82.336,1
0.399,0.926,0.706,-14.832,18.677,76.416,1
0.379,1.148,0.691,-7.996,17.822,65.491,1
0.347,1.183,0.647,0.916,17.09,51.331,1
0.342,1.108,0.602,5.92,15.442,37.292,1
0.378,1.161,0.604,6.47,13.123,24.902,1
0.401,1.223,0.618,6.592,9.705,11.414,1
0.411,1.233,0.66,8.545,5.737,-4.089,1
0.416,1.174,0.696,19.348,3.174,-19.47,1
0.43,0.929,0.705,35.767,2.686,-32.288,1
0.429,0.628,0.699,49.316,3.662,-39.978,1
0.436,0.43,0.721,54.932,4.822,-43.884,1
0.455,0.326,0.762,53.528,5.371,-46.265,1
0.477,0.286,0.78,46.997,4.883,-48.157,1
0.485,0.24,0.786,36.987,3.479,-49.622,1
0.492,0.211,0.751,25.452,2.319,-50.11,1
0.505,0.24,0.727,17.456,0.427,-50.293,1
0.522,0.214,0.741,14.832,-1.831,-50.415,1
0.549,0.219,0.756,16.357,-3.723,-48.706,1
0.546,0.19,0.795,20.203,-4.883,-45.837,1
0.526,0.178,0.843,25.513,-5.249,-42.175,1
0.515,0.094,0.866,29.419,-4.272,-37.964,1
0.532,0.007,0.838,29.297,-2.319,-31.86,1
0.561,-0.07,0.777,26.489,-0.671,-23.987,1
0.586,-0.114,0.746,17.212,-0.366,-16.296,1
0.604,-0.071,0.719,5.432,-1.587,-8.362,1
0.597,0.006,0.695,-5.188,-3.845,-2.014,1
0.577,0.091,0.693,-13.306,-6.226,3.052,1
0.556,0.202,0.701,-19.47,-7.874,7.385,1
0.532,0.322,0.702,-20.386,-8.911,10.376,1
0.515,0.408,0.701,-15.137,-9.094,11.78,1
0.504,0.445,0.708,-7.324,-8.728,12.085,1
0.492,0.463,0.724,-0.183,-8.24,11.902,1
0.483,0.479,0.753,4.15,-7.69,11.23,1
0.48,0.498,0.783,6.348,-7.202,9.888,1
0.482,0.499,0.815,7.141,-6.287,7.996,1
0.481,0.483,0.84,6.714,-4.7,6.226,1
0.477,0.459,0.849,5.859,-2.625,4.333,1
0.484,0.442,0.838,5.371,-0.488,2.991,1
0.499,0.427,0.817,5.798,1.465,2.014,1
0.514,0.403,0.791,6.287,2.808,1.404,1
0.524,0.38,0.774,6.958,3.662,0.916,1
0.525,0.353,0.757,7.629,4.089,0.671,1
0.519,0.322,0.734,7.935,4.028,0.366,1
0.503,0.287,0.732,8.728,3.662,0.488,1
0.494,0.251,0.742,8.728,3.113,0.977,1
0.505,0.239,0.758,7.08,2.625,2.38,1
0.509,0.228,0.766,5.188,2.197,4.089,1
0.506,0.215,0.775,2.563,1.953,5.798,1
0.51,0.218,0.774,-0.854,1.343,7.568,1
0.516,0.225,0.771,-5.371,0.488,9.216,1
0.513,0.247,0.766,-10.254,-0.488,9.766,1
0.509,0.284,0.759,-13.855,-1.526,10.193,1
0.507,0.318,0.756,-15.32,-2.808,10.498,1
0.511,0.338,0.752,-15.869,-3.723,10.437,1
0.509,0.352,0.753,-16.052,-4.639,10.071,1
0.507,0.38,0.756,-15.991,-5.554,9.583,1
0.513,0.409,0.779,-15.015,-6.47,8.911,1
0.513,0.415,0.803,-14.16,-7.141,7.996,1
0.512,0.412,0.815,-14.221,-7.568,6.775,1
0.516,0.411,0.829,-14.221,-7.751,5.615,1
0.516,0.414,0.84,-14.221,-7.69,4.395,1
0.516,0.415,0.833,-14.954,-7.629,2.93,1
0.519,0.427,0.818,-14.648,-7.324,1.404,1
0.514,0.431,0.791,-11.841,-6.958,0,1
0.505,0.422,0.778,-8.606,-6.592,-1.404,1
0.497,0.423,0.77,-5.005,-6.165,-2.136,1
0.489,0.417,0.759,-1.282,-5.554,-2.502,1
0.485,0.396,0.757,1.343,-4.761,-3.052,1
0.486,0.371,0.753,2.625,-4.15,-3.113,1
0.488,0.344,0.754,2.869,-3.723,-2.991,1
0.496,0.339,0.759,2.991,-3.418,-2.686,1
0.499,0.336,0.763,2.441,-3.357,-2.38,1
0.497,0.337,0.764,1.465,-3.418,-1.892,1
0.495,0.353,0.761,0.366,-3.418,-1.038,1
0.5,0.376,0.772,0,-3.235,-0.366,1
0.495,0.376,0.792,0.854,-3.235,0.244,1
0.489,0.365,0.798,0.916,-3.174,0.793,1
0.488,0.359,0.795,0.427,-2.502,1.526,1
0.49,0.358,0.784,-0.977,-1.648,2.075,1
0.489,0.361,0.771,-2.686,-1.16,2.747,1
0.486,0.357,0.758,-4.395,-0.916,3.052,1
0.485,0.349,0.751,-5.859,-0.793,3.601,1
0.49,0.35,0.75,-6.897,-0.916,4.395,1
0.5,0.356,0.746,-7.08,-0.977,5.432,1
0.508,0.363,0.756,-6.775,-1.282,6.042,1
0.29,1.111,0.624,-60.608,16.418,64.209,1
0.313,1.213,0.527,-43.213,19.226,54.871,1
0.33,1.379,0.533,-25.574,19.47,42.48,1
0.301,1.508,0.552,-2.014,17.944,26.306,1
0.268,1.496,0.57,24.841,15.808,7.019,1
0.262,1.441,0.624,51.575,14.954,-11.475,1
0.261,1.289,0.684,77.637,15.808,-28.931,1
0.284,1.014,0.745,95.581,18.677,-43.457,1
0.312,0.733,0.832,100.708,22.217,-53.833,1
0.326,0.572,0.905,93.933,24.841,-62.073,1
0.317,0.448,0.896,83.496,25.879,-70.19,1
0.325,0.362,0.847,73.547,25.33,-77.82,1
0.356,0.325,0.728,67.627,23.743,-84.473,1
0.397,0.318,0.619,61.89,20.325,-90.149,1
0.436,0.303,0.552,58.716,15.869,-93.079,1
0.483,0.231,0.573,62.012,10.925,-94.177,1
0.525,0.075,0.653,65.186,6.653,-93.201,1
0.533,-0.139,0.727,62.012,4.211,-89.661,1
0.595,-0.283,0.754,56.641,1.831,-81.909,1
0.648,-0.518,0.777,54.321,0.183,-71.289,1
0.687,-0.734,0.771,41.016,-0.671,-57.007,1
0.741,-0.776,0.745,20.325,-2.441,-36.987,1
0.771,-0.723,0.661,-5.005,-5.371,-15.991,1
0.746,-0.681,0.556,-31.494,-10.01,4.028,1
0.693,-0.561,0.536,-64.514,-15.137,24.17,1
0.638,-0.288,0.587,-94.91,-19.165,41.931,1
0.593,0.007,0.683,-113.342,-21.851,55.176,1
0.549,0.242,0.775,-113.831,-20.813,65.125,1
0.502,0.275,0.826,-99.365,-16.113,72.876,1
0.478,0.256,0.786,-78.674,-8.667,80.75,1
0.467,0.298,0.813,-60.12,-0.61,88.44,1
0.42,0.327,0.805,-48.523,6.104,95.215,1
0.399,0.399,0.723,-47.913,10.01,100.464,1
0.391,0.646,0.688,-49.866,11.78,101.563,1
0.346,0.919,0.677,-54.932,11.536,96.741,1
0.293,1.062,0.61,-52.979,11.597,89.661,1
0.289,1.056,0.526,-52.124,11.78,80.627,1
0.313,1.192,0.526,-50.049,11.902,70.862,1
0.315,1.429,0.564,-39.978,10.803,57.373,1
0.324,1.5,0.59,-23.499,8.972,39.246,1
0.326,1.462,0.605,-5.066,7.568,19.897,1
0.336,1.37,0.638,12.146,6.592,0.488,1
0.355,1.309,0.71,30.029,6.897,-17.761,1
0.359,1.126,0.769,53.223,8.728,-34.607,1
0.348,0.838,0.811,71.472,11.963,-47.302,1
0.356,0.606,0.821,77.026,15.564,-55.786,1
0.376,0.472,0.816,69.519,18.066,-61.279,1
0.403,0.403,0.802,55.115,18.127,-65.186,1
0.438,0.39,0.751,39.063,15.869,-69.336,1
0.488,0.474,0.664,28.137,12.207,-73.73,1
0.51,0.371,0.648,27.405,7.812,-77.698,1
0.536,0.264,0.67,23.132,4.456,-79.163,1
0.563,0.322,0.693,27.527,1.221,-77.881,1
0.549,0.223,0.764,44.983,-1.16,-77.515,1
0.549,0.043,0.804,62.195,-0.366,-75.439,1
0.545,-0.11,0.788,69.641,1.709,-68.909,1
0.592,-0.181,0.721,64.27,2.991,-59.387,1
0.652,-0.202,0.702,53.528,2.258,-48.95,1
0.666,-0.253,0.716,40.894,0.183,-38.452,1
0.664,-0.283,0.699,24.963,-1.892,-26.978,1
0.671,-0.246,0.679,8.484,-3.906,-14.343,1
0.664,-0.149,0.664,-5.249,-6.104,-2.625,1
0.636,0.007,0.657,-15.808,-7.935,7.202,1
0.596,0.164,0.668,-22.583,-9.338,14.099,1
0.571,0.316,0.681,-21.606,-10.071,18.555,1
0.551,0.429,0.688,-15.32,-9.644,20.996,1
0.537,0.491,0.705,-7.446,-8.667,21.667,1
0.523,0.527,0.721,-1.038,-7.751,20.996,1
0.507,0.553,0.744,2.93,-6.836,19.47,1
0.496,0.559,0.78,5.188,-5.737,16.724,1
0.488,0.553,0.813,5.798,-4.456,13.489,1
0.483,0.54,0.843,5.92,-2.686,10.132,1
0.481,0.523,0.857,6.897,-0.366,6.592,1
0.493,0.48,0.848,8.728,2.136,3.113,1
0.516,0.411,0.819,10.986,4.517,0.793,1
0.536,0.341,0.793,12.817,6.592,-0.122,1
0.55,0.281,0.776,12.939,7.751,-0.244,1
0.558,0.237,0.764,12.146,8.179,-0.122,1
0.573,0.207,0.751,10.681,8.179,0.244,1
0.594,0.198,0.744,8.545,7.446,1.038,1
0.597,0.188,0.749,6.104,5.981,2.136,1
0.578,0.189,0.762,3.967,4.639,3.052,1
0.558,0.211,0.771,2.075,3.296,4.395,1
0.548,0.222,0.786,0.671,1.892,5.798,1
0.534,0.225,0.798,-1.648,1.099,6.836,1
0.52,0.243,0.801,-4.944,0.183,7.629,1
0.505,0.275,0.786,-8.118,-0.671,8.057,1
0.504,0.309,0.77,-10.193,-1.099,7.812,1
0.513,0.336,0.757,-10.437,-1.343,7.385,1
0.514,0.348,0.739,-9.46,-1.343,6.836,1
0.522,0.362,0.719,-7.629,-0.977,6.104,1
0.542,0.368,0.715,-4.883,-0.671,4.883,1
0.549,0.364,0.723,-2.38,-0.793,3.723,1
0.541,0.357,0.738,-0.61,-0.793,2.747,1
0.535,0.359,0.751,0.122,-1.038,1.709,1
0.536,0.358,0.769,0.427,-1.16,1.16,1
0.542,0.352,0.785,-0.549,-1.404,0.61,1
0.551,0.36,0.789,-1.892,-1.892,0.061,1
0.552,0.372,0.786,-3.54,-2.319,-0.549,1
0.545,0.372,0.773,-3.967,-2.686,-1.709,1
0.539,0.372,0.756,-2.869,-2.808,-2.258,1
0.537,0.368,0.743,-0.916,-2.747,-2.625,1
0.533,0.353,0.737,0.366,-2.686,-2.991,1
0.524,0.341,0.736,0.671,-2.747,-2.93,1
0.515,0.338,0.74,0.793,-2.808,-2.93,1
0.509,0.33,0.747,0.916,-2.747,-3.174,1
0.512,0.323,0.747,0.732,-2.441,-2.869,1
0.53,0.343,0.748,0.366,-2.258,-2.563,1
0.536,0.359,0.751,0.366,-2.319,-2.625,1
0.532,0.365,0.763,0.793,-2.563,-2.563,1
0.531,0.371,0.771,1.282,-2.319,-2.258,1
0.537,0.366,0.779,1.099,-1.587,-2.075,1
0.539,0.363,0.778,0.916,-0.732,-2.075,1
0.539,0.363,0.776,1.099,0.061,-1.953,1
0.544,0.355,0.771,1.953,0.61,-2.136,1
0.552,0.343,0.763,3.357,1.282,-2.197,1
0.554,0.332,0.756,4.578,1.343,-2.197,1
0.56,0.32,0.755,5.554,1.404,-1.953,1
0.566,0.308,0.754,5.554,1.221,-1.221,1
0.474,0.911,0.65,-52.856,22.278,78.491,1
0.474,1.054,0.56,-29.236,25.94,72.449,1
0.484,1.196,0.538,-8.057,27.344,63.721,1
0.493,1.275,0.533,10.376,26.184,50.232,1
0.473,1.266,0.549,27.466,21.057,31.433,1
0.444,1.202,0.604,39.551,15.564,11.536,1
0.414,1.181,0.663,50.354,11.902,-8.484,1
0.402,1.135,0.715,67.322,9.827,-30.273,1
0.398,0.922,0.727,85.449,9.46,-48.95,1
0.407,0.628,0.72,95.581,11.78,-60.73,1
0.427,0.38,0.732,94.971,13,-70.557,1
0.436,0.273,0.7,87.28,10.986,-82.764,1
0.457,0.234,0.632,79.712,7.019,-93.14,1
0.484,0.117,0.609,74.341,2.075,-101.135,1
0.503,-0.015,0.636,65.735,-2.625,-105.286,1
0.522,-0.072,0.698,52.673,-6.775,-105.957,1
0.54,-0.05,0.726,49.316,-10.376,-105.652,1
0.557,-0.269,0.763,60.547,-11.414,-103.149,1
0.546,-0.604,0.779,68.665,-8.728,-94.849,1
0.618,-0.79,0.782,59.814,-5.859,-81.36,1
0.717,-0.808,0.73,40.71,-5.188,-64.148,1
0.77,-0.875,0.694,20.203,-6.836,-45.776,1
0.764,-0.897,0.673,-5.798,-9.094,-25.391,1
0.765,-0.895,0.636,-39.001,-11.292,-3.845,1
0.758,-0.813,0.58,-83.557,-13.977,17.822,1
0.704,-0.576,0.59,-124.878,-18.005,39.124,1
0.645,-0.29,0.67,-153.076,-19.958,54.749,1
0.603,-0.035,0.798,-158.752,-17.822,66.711,1
0.559,0.111,0.856,-143.494,-10.376,76.172,1
0.538,0.17,0.83,-110.718,1.038,85.022,1
0.56,0.176,0.759,-70.068,14.343,94.604,1
0.577,0.223,0.68,-40.405,24.109,103.394,1
0.571,0.353,0.659,-22.522,28.687,108.765,1
0.561,0.565,0.694,-15.869,28.32,108.582,1
0.539,0.737,0.698,-15.869,25.574,104.431,1
0.54,0.813,0.613,-15.747,21.912,97.656,1
0.511,0.832,0.587,-17.456,18.616,89.294,1
0.478,0.989,0.581,-23.071,15.503,79.041,1
0.505,1.207,0.541,-23.132,11.108,63.843,1
0.521,1.288,0.56,-14.526,5.737,45.044,1
0.51,1.263,0.586,-2.197,0.244,23.865,1
0.496,1.293,0.678,12.39,-3.601,2.136,1
0.478,1.259,0.796,35.156,-5.005,-18.738,1
0.471,1.024,0.866,61.035,-3.662,-38.33,1
0.455,0.688,0.869,81.482,0.549,-53.162,1
0.442,0.442,0.869,86.853,4.7,-62.805,1
0.467,0.32,0.813,81.36,7.141,-69.519,1
0.51,0.26,0.745,73.608,6.958,-74.89,1
0.543,0.142,0.687,66.162,4.15,-79.346,1
0.595,0.127,0.628,55.542,0.061,-81.97,1
0.64,0.198,0.589,53.101,-4.7,-83.069,1
0.626,0.047,0.608,56.519,-8.484,-83.557,1
0.598,-0.121,0.69,54.993,-10.071,-79.59,1
0.575,-0.112,0.778,54.504,-10.498,-72.876,1
0.584,-0.189,0.832,63.965,-8.85,-66.65,1
0.589,-0.431,0.837,68.237,-4.7,-58.96,1
0.649,-0.552,0.788,57.312,-0.61,-46.326,1
0.722,-0.496,0.719,36.621,0.122,-31.86,1
0.752,-0.406,0.668,15.076,-2.38,-19.531,1
0.746,-0.32,0.657,-0.854,-5.798,-8.301,1
0.721,-0.214,0.648,-11.597,-8.545,1.038,1
0.685,-0.054,0.665,-20.874,-10.315,9.094,1
0.65,0.103,0.693,-27.466,-11.414,14.526,1
0.622,0.228,0.727,-28.809,-11.597,17.517,1
0.593,0.314,0.761,-24.17,-10.315,18.25,1
0.574,0.357,0.779,-16.174,-7.751,17.517,1
0.549,0.372,0.789,-8.484,-4.944,15.869,1
0.569,0.376,0.792,-1.099,-1.953,13.733,1
0.544,0.361,0.803,2.869,-0.183,11.597,1
0.546,0.323,0.819,6.104,1.465,8.179,1
0.578,0.269,0.824,8.423,3.113,5.92,1
0.596,0.22,0.819,9.46,4.333,4.517,1
0.594,0.181,0.806,8.667,5.188,3.906,1
0.596,0.146,0.794,6.958,5.92,3.479,1
0.605,0.12,0.784,5.615,6.775,3.174,1
0.615,0.087,0.766,7.568,7.08,3.052,1
0.627,0.065,0.759,8.606,6.226,3.052,1
0.629,0.066,0.76,7.751,5.371,3.296,1
0.62,0.073,0.76,5.371,4.578,3.357,1
0.619,0.072,0.755,3.052,4.211,3.845,1
0.624,0.081,0.748,1.587,4.15,4.456,1
0.616,0.096,0.743,0.916,3.723,5.005,1
0.606,0.108,0.744,0.305,2.991,5.493,1
0.608,0.127,0.748,-0.427,2.441,5.737,1
0.611,0.151,0.747,-1.465,2.136,5.31,1
0.609,0.169,0.742,-2.197,1.404,4.7,1
0.607,0.177,0.746,-2.441,0.671,3.906,1
0.612,0.177,0.758,-2.502,0.183,3.418,1
0.62,0.177,0.77,-1.709,-0.183,2.625,1
0.625,0.182,0.782,-0.61,-0.061,1.892,1
0.63,0.181,0.79,0.732,0.183,0.854,1
0.637,0.166,0.792,1.587,0.366,0.427,1
0.638,0.158,0.787,1.953,0.732,-0.183,1
0.642,0.156,0.777,2.075,1.221,-0.366,1
0.642,0.154,0.764,2.38,1.465,-0.549,1
0.641,0.159,0.749,2.869,1.709,-0.183,1
0.648,0.166,0.742,3.235,1.648,0.244,1
0.651,0.166,0.742,3.845,1.282,0.671,1
0.652,0.168,0.753,4.639,1.099,1.099,1
0.652,0.177,0.765,5.371,1.099,1.709,1
0.649,0.18,0.781,5.371,1.221,2.136,1
0.656,0.174,0.799,5.676,1.587,2.563,1
0.661,0.161,0.807,5.493,2.38,3.052,1
0.652,0.148,0.804,5.31,2.93,3.235,1
0.642,0.128,0.792,4.761,3.296,3.357,1
0.635,0.107,0.774,3.845,3.235,3.662,1
0.623,0.095,0.769,3.174,2.991,4.333,1
0.608,0.093,0.76,2.93,2.502,4.883,1
0.601,0.087,0.75,3.174,2.502,5.493,1
0.596,0.09,0.736,2.991,2.502,5.859,1
0.596,0.096,0.725,2.014,2.625,6.042,1
0.595,0.102,0.729,0.671,2.136,5.92,1
0.597,0.113,0.735,-0.671,1.465,5.798,1
0.603,0.132,0.74,-1.953,0.793,5.188,1
0.607,0.148,0.746,-2.747,0.244,4.089,1
0.606,0.153,0.748,-2.991,-0.61,3.052,1
0.609,0.147,0.743,-2.747,-1.038,2.197,1
0.612,0.141,0.742,-2.258,-1.526,1.526,1
0.62,0.149,0.745,-2.136,-1.831,1.465,1
-0.377,0.771,1.079,81.665,-44.312,-65.796,2
-0.24,0.017,1.176,152.893,-6.592,-52.246,2
0.072,-0.832,1.24,175.171,23.865,-40.71,2
0.29,-1.084,1.292,139.709,41.077,-40.344,2
0.345,-0.926,1.307,61.035,35.034,-51.758,2
0.249,-0.461,1.28,-16.479,16.113,-62.988,2
0.114,-0.135,1.28,-64.392,-2.563,-67.688,2
-0.01,-0.05,1.293,-78.613,-12.878,-61.584,2
-0.084,-0.073,1.257,-70.068,-9.277,-54.871,2
-0.085,-0.138,1.184,-54.932,3.052,-51.819,2
-0.093,-0.192,1.098,-43.884,16.602,-45.288,2
-0.055,-0.206,0.997,-40.527,25.452,-41.504,2
-0.005,-0.162,0.923,-43.335,24.719,-39.917,2
-0.065,-0.117,0.891,-39.063,17.7,-36.987,2
-0.117,-0.229,0.878,-22.583,13.672,-31.311,2
-0.099,-0.383,0.88,-2.502,16.418,-18.921,2
-0.029,-0.416,0.898,16.235,23.56,-7.019,2
0.002,-0.387,0.915,32.288,27.1,0.061,2
0.01,-0.374,0.921,46.021,29.297,5.005,2
0.026,-0.355,0.929,56.091,30.579,9.094,2
0.038,-0.339,0.94,62.012,30.762,11.597,2
0.041,-0.336,0.945,65.247,30.212,14.343,2
0.046,-0.339,0.932,65.491,29.541,19.104,2
0.091,-0.336,0.902,63.599,28.198,24.17,2
0.112,-0.351,0.877,59.204,21.973,29.297,2
0.105,-0.363,0.863,52.734,15.686,33.447,2
0.126,-0.353,0.845,44.495,10.193,35.339,2
0.138,-0.342,0.826,36.194,3.113,36.743,2
0.122,-0.319,0.829,25.635,-3.784,36.987,2
0.108,-0.25,0.844,12.451,-9.399,35.889,2
0.094,-0.163,0.853,1.709,-14.038,33.875,2
0.089,-0.132,0.853,-7.324,-17.822,32.043,2
0.082,-0.138,0.866,-15.991,-21.973,30.762,2
0.081,-0.128,0.889,-24.841,-25.146,29.236,2
0.087,-0.113,0.913,-33.63,-27.893,26.733,2
0.089,-0.122,0.929,-44.25,-31.372,24.597,2
0.067,-0.094,0.948,-54.932,-35.339,22.461,2
0.068,-0.09,0.941,-65.125,-37.964,20.447,2
0.077,-0.085,0.933,-78.186,-41.077,19.47,2
0.042,0.161,0.651,-86.426,-45.41,17.517,2
-0.217,0.39,0.934,-83.313,-54.749,8.972,2
-0.236,0.553,1.074,-52.673,-48.096,-3.052,2
-0.23,0.387,1.229,-8.362,-22.217,-6.836,2
-0.077,0.066,1.282,21.423,2.625,-5.981,2
0.064,-0.095,1.277,33.63,19.409,-3.052,2
0.172,-0.166,1.205,26.001,26.062,-5.005,2
0.18,-0.166,1.098,9.399,20.142,-5.31,2
0.137,-0.084,1.008,-4.883,7.874,-6.897,2
0.062,0.004,0.952,-9.766,-2.747,-7.019,2
0.003,0.024,0.931,-5.554,-6.592,-5.676,2
0.009,-0.006,0.928,3.296,-4.272,-3.235,2
0.041,-0.055,0.926,13,0.305,-0.854,2
0.072,-0.101,0.924,18.494,3.357,-0.122,2
0.086,-0.138,0.926,18.555,3.54,-0.977,2
0.081,-0.143,0.936,14.832,1.221,-2.136,2
0.059,-0.133,0.959,10.315,-2.441,-2.869,2
0.029,-0.123,0.979,6.775,-4.822,-3.296,2
0.01,-0.112,1.001,5.066,-4.944,-2.625,2
0.017,-0.098,1.017,3.723,-4.089,-1.221,2
0.016,-0.098,1.028,2.808,-3.54,-0.488,2
0.013,-0.108,1.028,1.709,-3.601,0.488,2
0.012,-0.108,1.024,0.305,-4.089,1.099,2
0.013,-0.099,1.017,-0.977,-4.272,1.343,2
0.012,-0.092,1.011,-1.404,-3.662,1.526,2
0.014,-0.091,1,-1.465,-2.686,1.221,2
0.011,-0.088,0.986,-1.709,-2.075,0.549,2
0.009,-0.083,0.98,-1.892,-1.282,-0.122,2
0.013,-0.085,0.975,-1.892,-0.305,-0.549,2
0.018,-0.09,0.965,-2.075,0.122,-0.549,2
0.02,-0.087,0.955,-2.808,-0.122,-0.305,2
0.024,-0.083,0.946,-3.052,-0.61,-0.244,2
0.026,-0.083,0.943,-2.563,-1.343,-0.305,2
0.025,-0.083,0.945,-1.709,-1.953,-0.061,2
0.024,-0.073,0.953,-0.793,-2.502,-0.122,2
0.025,-0.068,0.959,0.488,-2.502,-0.488,2
0.026,-0.077,0.96,1.953,-2.258,-0.488,2
0.03,-0.085,0.959,2.686,-2.197,-0.488,2
0.029,-0.092,0.965,2.808,-2.625,-0.549,2
0.027,-0.096,0.972,1.77,-2.93,-0.61,2
0.025,-0.092,0.978,0.427,-3.113,-0.427,2
0.023,-0.086,0.988,-1.099,-3.174,-0.549,2
0.02,-0.088,1.004,-2.563,-3.052,-0.305,2
0.014,-0.097,1.013,-3.235,-2.502,0.122,2
0.014,-0.102,1.014,-2.991,-1.892,0.732,2
0.015,-0.102,1.008,-2.625,-1.038,0.977,2
0.017,-0.096,0.997,-2.625,-0.488,1.343,2
0.016,-0.091,0.989,-2.869,-0.244,1.038,2
0.016,-0.089,0.983,-3.052,-0.061,0.732,2
0.015,-0.087,0.979,-2.991,0.183,0.61,2
0.016,-0.082,0.97,-2.38,0.366,0.244,2
0.018,-0.078,0.966,-2.075,0.793,0.366,2
0.02,-0.078,0.963,-1.282,0.793,0.427,2
0.024,-0.08,0.963,-0.793,0.549,0.305,2
0.022,-0.076,0.963,-0.122,0.183,0.183,2
0.019,-0.074,0.962,0.122,-0.183,0.122,2
0.022,-0.075,0.968,-0.244,0,0,2
0.027,-0.088,0.981,-1.099,-0.061,0.183,2
0.025,-0.101,0.99,-2.014,-0.305,0.366,2
0.023,-0.093,0.993,-2.747,-0.916,0.61,2
0.02,-0.083,0.992,-3.418,-1.221,1.099,2
0.021,-0.079,0.994,-3.967,-1.282,1.526,2
0.023,-0.079,0.996,-4.211,-1.099,1.709,2
0.025,-0.077,0.997,-4.089,-0.793,1.892,2
0.025,-0.071,0.995,-3.723,-0.366,1.892,2
0.023,-0.065,0.99,-3.967,-0.671,1.831,2
0.022,-0.061,0.982,-3.967,-0.793,1.648,2
0.02,-0.06,0.981,-3.906,-1.038,1.648,2
0.019,-0.061,0.979,-3.662,-1.038,1.526,2
0.022,-0.059,0.982,-3.54,-1.221,1.587,2
0.024,-0.053,0.979,-3.662,-1.709,1.404,2
0.021,-0.05,0.98,-3.662,-1.892,1.343,2
0.02,-0.053,0.984,-3.601,-2.136,1.16,2
0.019,-0.055,0.981,-2.991,-2.136,1.16,2
0.019,-0.052,0.98,-2.441,-2.38,1.221,2
0.017,-0.05,0.981,-1.892,-2.441,1.16,2
0.016,-0.055,0.982,-1.038,-2.258,0.854,2
0.021,-0.063,0.985,-0.366,-1.77,0.488,2
0.02,-0.081,0.994,-0.244,-1.587,0.305,2
0.016,-0.093,0.995,-0.305,-1.709,0.488,2
-0.028,0.081,1.459,42.297,-13.916,-26.672,2
0.22,-0.179,1.452,61.096,16.907,-20.752,2
0.387,-0.218,1.349,52.063,29.602,-23.437,2
0.349,-0.163,1.236,28.381,22.705,-28.503,2
0.307,-0.062,1.104,5.066,9.338,-32.593,2
0.286,-0.008,1.026,-9.277,-4.089,-32.654,2
0.229,-0.015,1.03,-15.808,-12.146,-30.64,2
0.219,-0.021,1.058,-17.517,-12.512,-28.748,2
0.239,-0.006,1.072,-18.188,-8.545,-27.527,2
0.26,0.032,1.037,-18.25,-4.272,-26.55,2
0.276,0.067,0.996,-16.174,-2.991,-25.635,2
0.273,0.097,0.976,-13.184,-5.371,-25.574,2
0.239,0.133,0.963,-8.972,-8.789,-26.428,2
0.206,0.138,0.949,-4.028,-11.353,-27.771,2
0.193,0.11,0.935,-2.075,-12.634,-29.175,2
0.18,0.094,0.929,-1.648,-13.489,-30.334,2
0.175,0.021,0.95,-2.502,-14.465,-31.738,2
0.167,-0.029,0.987,-6.714,-15.808,-32.654,2
0.139,-0.004,1.056,-12.451,-18.494,-35.278,2
0.064,0.006,1.128,-16.052,-19.47,-38.574,2
0.034,-0.042,1.165,-14.465,-17.944,-38.635,2
0.006,-0.142,1.16,-10.925,-14.893,-36.682,2
0.003,-0.222,1.14,-9.644,-10.681,-33.691,2
-0.001,-0.3,1.123,-10.864,-7.141,-29.358,2
-0.031,-0.357,1.088,-15.198,-4.517,-24.658,2
-0.05,-0.385,1.077,-23.01,-4.028,-18.982,2
-0.052,-0.42,1.052,-31.86,-4.517,-12.085,2
-0.063,-0.359,0.992,-36.133,-5.005,-4.578,2
-0.127,-0.194,0.989,-28.442,-5.249,0.427,2
-0.147,-0.174,1.001,-7.08,-0.549,5.493,2
-0.119,-0.237,1.003,22.095,11.536,13.123,2
-0.064,-0.258,0.993,50.781,26.245,18.738,2
-0.02,-0.278,0.955,71.106,36.621,22.095,2
0.054,-0.288,0.927,79.529,42.236,25.146,2
0.079,-0.338,0.925,75.867,40.649,27.71,2
0.118,-0.398,0.9,60.364,37.598,26.733,2
0.19,-0.408,0.868,40.771,31.372,27.527,2
0.188,-0.409,0.84,18.127,21.362,29.846,2
0.19,-0.344,0.804,-3.723,13.916,30.579,2
0.199,-0.223,0.768,-19.653,5.554,32.41,2
0.191,-0.13,0.754,-28.992,-4.883,33.63,2
0.136,-0.033,0.77,-31.921,-12.878,33.447,2
0.114,0.049,0.802,-29.602,-16.296,32.654,2
0.126,0.08,0.834,-23.987,-17.883,31.189,2
0.146,0.054,0.838,-18.311,-18.982,30.762,2
0.162,0.029,0.825,-15.076,-23.376,30.396,2
0.167,-0.014,0.802,-16.052,-30.701,29.724,2
0.164,-0.041,0.793,-21.729,-38.269,29.602,2
0.145,-0.011,0.786,-28.687,-45.288,29.236,2
0.08,0.172,0.444,-35.645,-52.246,27.1,2
-0.201,0.331,0.878,-42.419,-64.453,18.25,2
-0.165,0.521,1.156,-26.245,-60.242,4.822,2
-0.164,0.335,1.423,7.019,-35.645,2.075,2
-0.031,-0.031,1.537,25.452,-5.981,0.305,2
0.129,-0.132,1.479,25.269,13.916,-1.709,2
0.186,-0.061,1.307,9.277,17.09,-5.493,2
0.123,0.046,1.17,-4.761,7.629,-7.568,2
0.062,0.031,1.078,-9.644,-0.366,-7.385,2
0.06,-0.024,1.035,-9.338,-0.854,-7.019,2
0.076,-0.06,0.987,-8.301,1.648,-3.906,2
0.11,-0.089,0.942,-8.057,4.272,-1.465,2
0.114,-0.082,0.903,-8.911,5.066,0.122,2
0.119,-0.056,0.875,-8.606,4.028,0.61,2
0.117,-0.039,0.866,-6.47,1.77,0.549,2
0.101,-0.03,0.879,-3.174,-0.488,0.366,2
0.084,-0.029,0.9,0.244,-1.587,0.671,2
0.075,-0.024,0.915,2.869,-1.465,1.282,2
0.067,-0.04,0.935,4.883,-0.916,1.404,2
0.07,-0.069,0.96,1.892,-0.671,0.916,2
0.074,-0.063,0.987,-3.662,-1.16,0.61,2
0.072,-0.044,1.008,-8.667,-2.319,0.793,2
0.068,-0.014,1.032,-12.268,-3.662,1.404,2
0.056,0.006,1.041,-12.451,-4.15,2.38,2
0.048,0.003,1.031,-10.437,-3.418,2.869,2
0.05,-0.002,1.01,-8.057,-1.16,2.808,2
0.063,-0.008,0.991,-6.226,1.038,2.441,2
0.077,0.002,0.973,-5.127,2.319,1.831,2
0.081,0.021,0.962,-3.723,2.808,0.793,2
0.076,0.034,0.955,-1.648,2.808,0.305,2
0.074,0.032,0.949,1.343,3.174,0.244,2
0.076,0.012,0.948,3.418,3.418,0.183,2
0.087,-0.016,0.942,2.136,2.808,0.122,2
0.088,-0.012,0.946,-1.343,1.282,-0.854,2
0.074,-0.007,0.958,-4.333,-0.366,-1.16,2
0.068,-0.005,0.972,-5.798,-1.526,-0.732,2
0.063,0.004,0.978,-5.432,-1.648,-0.488,2
0.06,0.015,0.985,-3.235,-0.977,-0.427,2
0.061,-0.001,0.989,-0.305,-0.183,-0.671,2
0.06,-0.018,0.993,2.136,1.038,-0.977,2
0.06,-0.016,0.991,4.211,1.831,-1.465,2
0.058,-0.013,0.991,5.92,2.38,-1.709,2
0.056,-0.01,0.996,8.179,2.991,-1.709,2
0.057,-0.019,1,10.193,3.54,-1.77,2
0.062,-0.032,0.998,10.315,4.15,-2.136,2
0.068,-0.039,0.989,9.399,4.395,-2.563,2
0.068,-0.036,0.981,7.69,4.272,-2.686,2
0.065,-0.028,0.98,6.226,3.967,-2.625,2
0.083,-0.03,0.981,5.554,3.113,-2.441,2
0.059,-0.037,0.987,5.493,2.747,-2.441,2
0.065,-0.042,0.985,6.287,4.639,-2.441,2
0.087,-0.064,0.975,7.141,5.066,-2.258,2
0.09,-0.097,0.975,4.517,3.906,-1.953,2
0.086,-0.087,0.98,1.038,2.869,-1.343,2
0.084,-0.072,0.993,-1.831,2.563,-0.549,2
0.088,-0.066,1,-3.235,2.563,0.244,2
0.095,-0.062,0.998,-4.395,2.563,0.61,2
0.092,-0.052,0.99,-5.127,1.953,0.977,2
0.089,-0.041,0.988,-5.493,1.465,1.465,2
0.082,-0.026,0.987,-5.432,1.526,1.648,2
0.087,-0.011,0.982,-4.883,1.892,1.465,2
0.09,-0.003,0.985,-4.15,1.648,1.282,2
0.085,0.004,0.992,-3.235,1.16,1.404,2
0.084,0.002,0.992,-1.892,1.038,1.526,2
0.085,-0.002,0.992,-1.221,0.854,1.465,2
0.084,0.001,0.989,-0.854,0.916,1.16,2
0.088,0.003,0.987,-0.427,0.549,0.854,2
0.089,-0.006,0.988,-0.732,0.122,0.549,2
0.087,-0.01,0.989,-1.343,-0.305,-0.061,2
0.088,-0.007,0.986,-1.465,-0.61,-0.183,2
-0.169,0.806,1.22,-4.089,-53.894,-41.26,2
-0.149,0.461,1.421,57.922,-25.513,-36.316,2
0.089,-0.226,1.469,99.915,8.179,-30.212,2
0.338,-0.603,1.398,92.285,31.738,-24.902,2
0.448,-0.633,1.255,45.471,33.203,-30.029,2
0.375,-0.379,1.093,-10.62,17.151,-36.194,2
0.267,-0.069,0.991,-49.561,-2.991,-40.344,2
0.146,0.133,0.979,-64.758,-16.479,-41.992,2
0.072,0.182,0.994,-59.265,-17.639,-41.382,2
0.117,0.155,0.992,-44.006,-9.094,-39.429,2
0.148,0.118,0.959,-29.907,-1.892,-37.659,2
0.17,0.07,0.919,-20.935,1.221,-37.292,2
0.168,0.065,0.892,-15.442,0,-38.025,2
0.198,0.106,0.876,-11.902,-4.395,-39.795,2
0.111,0.049,0.895,-6.287,-13.672,-38.452,2
0.053,-0.016,0.928,-1.282,-15.076,-38.635,2
0.109,-0.129,0.941,3.052,-9.46,-35.095,2
0.129,-0.196,0.971,0.366,-8.423,-36.804,2
0.104,-0.185,1.013,-5.981,-9.46,-39.978,2
0.088,-0.16,1.056,-10.803,-9.827,-38.208,2
0.083,-0.176,1.067,-12.207,-9.583,-33.325,2
0.087,-0.217,1.073,-12.756,-8.728,-30.396,2
0.097,-0.233,1.065,-14.404,-7.996,-27.161,2
0.104,-0.224,1.047,-16.479,-7.69,-22.888,2
0.094,-0.196,1.023,-18.25,-8.484,-18.921,2
0.073,-0.174,1.006,-18.127,-8.118,-15.198,2
0.073,-0.16,0.977,-15.32,-6.226,-12.695,2
0.083,-0.161,0.959,-11.536,-5.615,-9.705,2
0.071,-0.171,0.954,-7.874,-5.615,-6.47,2
0.068,-0.173,0.955,-4.639,-4.211,-3.418,2
0.072,-0.16,0.968,-1.709,-2.136,-1.221,2
0.075,-0.156,0.985,0.244,-0.549,0.732,2
0.078,-0.156,0.999,0.671,0.61,2.319,2
0.085,-0.134,0.996,-0.366,1.221,3.723,2
0.091,-0.088,0.996,-2.197,0.916,5.127,2
0.098,-0.059,1.001,-4.456,0.427,6.409,2
0.103,-0.046,1.002,-7.263,-2.197,7.141,2
0.055,-0.017,1.008,-10.132,-3.052,6.958,2
0.082,0.019,1.004,-11.23,-0.061,6.653,2
0.087,0.047,1,-11.169,0.183,5.92,2
0.078,0.065,0.993,-10.315,0.183,4.944,2
0.087,0.057,0.981,-8.728,0.244,4.028,2
0.086,0.039,0.966,-7.507,-0.122,3.479,2
0.073,0.048,0.955,-6.836,-0.305,2.686,2
0.097,0.038,0.946,-6.531,-0.61,2.563,2
0.101,0.037,0.959,-6.714,-1.892,2.38,2
0.103,0.042,0.982,-6.287,-2.747,1.892,2
0.105,0.043,0.995,-5.676,-3.174,1.343,2
0.105,0.041,0.992,-4.7,-2.93,0.732,2
0.084,0.041,0.989,-3.296,-2.075,0.305,2
0.106,0.068,0.982,-1.404,1.465,-1.221,2
0.137,0.055,0.972,0.427,1.648,-1.709,2
0.125,0.046,0.967,0.305,-0.427,-2.075,2
0.114,0.023,0.969,-0.366,-2.319,-2.014,2
0.114,0.006,0.971,-2.075,-2.563,-2.075,2
0.106,-0.001,0.98,-4.211,-2.197,-2.014,2
0.131,0.004,0.983,-5.493,-0.854,-1.709,2
0.124,0.004,0.985,-5.493,-2.014,-1.343,2
0.107,0.017,0.99,-4.578,-2.319,-1.526,2
0.118,0.013,0.991,-2.441,-1.282,-0.916,2
0.118,0.006,0.992,-0.183,-0.732,-0.305,2
0.121,0.009,0.993,0.977,0,0.305,2
0.13,0.014,0.991,1.038,0.427,0.793,2
0.121,0.013,0.996,0,0.305,0.793,2
0.117,0.031,1,-1.465,0.671,0.305,2
0.114,0.044,1.004,-1.831,1.526,0.244,2
0.121,0.048,1,-1.526,2.747,0.305,2
0.142,0.059,0.983,-1.221,2.625,0.305,2
0.126,0.054,0.972,-1.099,0.122,0.793,2
0.113,0.046,0.959,-1.221,-0.854,1.16,2
0.118,0.043,0.956,-1.038,-0.854,1.404,2
0.119,0.037,0.956,-1.038,-0.427,1.465,2
0.122,0.028,0.958,-0.671,-0.061,1.099,2
0.122,0.031,0.962,0.305,-0.366,0.488,2
0.115,0.037,0.963,1.099,-0.977,0.244,2
0.108,0.036,0.962,2.258,-1.038,-0.122,2
0.111,0.02,0.959,3.296,-0.854,0.183,2
0.113,0.014,0.96,3.113,-0.732,0.61,2
0.114,0.004,0.96,1.648,-1.16,0.977,2
0.113,0.014,0.97,-0.427,-1.77,0.793,2
0.105,0.01,0.983,-1.343,-2.319,0.732,2
0.102,0.003,0.988,-1.16,-1.953,0.977,2
0.104,0.007,0.989,-0.427,-1.282,1.404,2
0.107,0.002,0.989,0.305,-0.854,1.892,2
0.097,0.001,0.99,0.977,-0.732,2.258,2
0.102,0.006,0.988,1.404,-0.061,2.563,2
0.104,0.012,0.985,1.953,0.061,2.319,2
0.099,0.016,0.984,2.502,0.183,2.197,2
0.099,0.017,0.977,2.991,0.366,2.136,2
0.106,0.019,0.979,2.808,0.671,2.258,2
0.109,0.006,0.984,1.831,0.488,2.319,2
0.111,-0.003,0.988,-1.099,0,2.441,2
0.106,0.008,0.986,-4.089,-0.366,2.686,2
0.103,0.027,0.987,-6.042,-0.366,2.502,2
0.101,0.043,0.984,-6.653,-0.061,2.625,2
0.101,0.05,0.977,-5.676,0.244,2.686,2
0.099,0.046,0.971,-4.211,0.244,2.686,2
0.095,0.045,0.972,-2.38,0.305,2.747,2
0.099,0.044,0.976,-1.16,0.244,2.625,2
0.099,0.043,0.984,-0.305,0.244,2.502,2
0.099,0.042,0.986,0.366,0.305,2.258,2
0.102,0.044,0.986,0.061,0.488,1.465,2
0.105,0.042,0.982,-0.61,0.488,0.793,2
0.105,0.048,0.978,-0.916,0.305,0.671,2
0.106,0.048,0.974,-0.488,0.305,0.366,2
0.104,0.044,0.978,0.671,0.061,0.305,2
0.107,0.036,0.974,1.465,0.244,0.183,2
0.111,0.029,0.972,1.953,0.244,0.183,2
0.109,0.025,0.971,2.258,0.122,0.122,2
0.107,0.016,0.974,2.502,0.122,-0.061,2
0.11,0,0.975,2.136,0,0.244,2
0.112,-0.008,0.974,0.793,0.305,0.549,2
0.112,-0.001,0.975,-0.488,0.061,0.732,2
0.107,0.013,0.985,-1.221,-0.244,1.16,2
0.103,0.023,0.999,-0.854,-0.061,1.343,2
0.108,0.007,0.996,-0.244,0.488,1.526,2
0.113,0.002,0.983,-0.916,0.793,2.014,2
0.118,0.007,0.977,-2.93,0.366,2.136,2
0.105,0.021,0.976,-5.249,-1.038,2.136,2
0.518,-0.744,1.254,62.866,31.25,-12.39,2
0.474,-0.466,1.139,7.202,17.761,-17.944,2
0.357,-0.148,1.062,-37.231,-1.465,-22.644,2
0.253,0.004,1.024,-54.749,-16.052,-23.01,2
