aX,aY,aZ,gX,gY,gZ
0.27,0.786,0.914,1.526,7.019,-135.986
0.264,0.725,0.884,-0.732,7.996,-151.672
0.266,0.714,0.875,1.77,8.423,-164.673
0.277,0.668,0.871,11.597,9.644,-176.453
0.269,0.573,0.839,25.574,12.146,-187.073
0.274,0.449,0.821,41.748,16.296,-196.533
0.292,0.355,0.8,61.157,20.935,-203.552
0.314,0.346,0.764,81.055,26.428,-208.862
0.322,0.374,0.75,103.577,31.555,-214.172
0.293,0.338,0.744,125.793,37.354,-218.75
0.3,0.18,0.716,142.456,44.861,-221.313
0.329,-0.054,0.708,145.386,49.988,-222.717
0.352,-0.22,0.719,134.277,50.781,-223.511
0.374,-0.255,0.682,114.197,49.011,-223.694
0.395,-0.176,0.586,97.168,44.8,-226.379
0.374,-0.136,0.556,90.21,39.185,-231.75
0.291,-0.212,0.577,99.182,37.292,-234.131
0.207,-0.389,0.608,115.479,41.138,-233.459
0.155,-0.587,0.617,137.939,48.157,-229.37
0.127,-0.76,0.632,160.156,56.335,-221.069
0.095,-0.86,0.654,169.556,62.622,-214.478
0.067,-0.891,0.681,156.982,65.796,-211.487
0.033,-0.881,0.671,126.404,65.186,-209.29
0.028,-0.91,0.648,79.102,61.34,-208.13
0.097,-0.896,0.563,27.954,56.885,-205.261
0.192,-0.83,0.424,-0.244,52.002,-201.477
0.2,-0.758,0.337,3.967,48.096,-198.364
0.097,-0.818,0.344,31.067,46.326,-194.031
0.03,-0.944,0.391,62.256,46.448,-188.232
-0.019,-1.058,0.446,82.092,45.471,-181.763
-0.086,-1.15,0.483,82.092,42.419,-174.438
-0.124,-1.194,0.509,59.692,38.269,-166.931
-0.117,-1.169,0.518,25.94,34.119,-158.325
-0.08,-1.152,0.506,-7.629,29.48,-150.085
-0.02,-1.136,0.501,-39.429,24.78,-144.165
0.042,-1.109,0.497,-61.462,20.325,-139.709
0.06,-1.04,0.493,-67.81,15.808,-135.986
0.033,-0.951,0.473,-57.8,10.681,-133.423
-0.028,-0.873,0.441,-37.842,5.859,-130.92
-0.086,-0.846,0.445,-18.494,1.404,-127.258
-0.135,-0.89,0.484,-5.798,-3.235,-121.338
-0.158,-0.965,0.535,-5.188,-7.324,-113.159
-0.137,-1.036,0.596,-15.625,-10.742,-104.004
-0.109,-1.08,0.655,-30.64,-13.184,-95.581
-0.103,-1.07,0.688,-42.542,-14.404,-88.44
-0.084,-1.015,0.688,-48.767,-14.832,-82.153
-0.091,-0.954,0.67,-49.438,-14.771,-76.355
-0.085,-0.953,0.56,-46.021,-14.954,-70.007
-0.162,-0.914,0.568,-35.461,-18.738,-60.791
-0.23,-1.103,0.598,-48.889,-21.606,-49.255
-0.113,-1.298,0.671,-94.666,-22.522,-30.579
-0.096,-1.23,0.796,-118.103,-24.902,-14.099
-0.141,-0.901,0.882,-121.338,-24.841,-3.601
-0.089,-0.782,0.93,-102.966,-23.01,1.343
-0.091,-0.818,0.954,-79.285,-19.714,4.333
-0.067,-0.816,0.945,-61.218,-15.442,8.301
-0.042,-0.747,0.942,-43.701,-11.169,12.207
-0.041,-0.68,0.935,-30.334,-7.69,14.709
-0.03,-0.673,0.913,-20.996,-4.822,16.663
-0.009,-0.674,0.882,-14.404,-2.258,17.7
0.018,-0.676,0.854,-10.193,-0.183,17.212
0.037,-0.665,0.846,-9.094,0.671,15.93
0.058,-0.645,0.833,-11.475,0.732,14.099
0.067,-0.648,0.82,-15.625,-0.366,11.597
0.064,-0.63,0.806,-19.653,-1.892,9.521
0.055,-0.605,0.793,-21.423,-2.808,7.874
0.042,-0.593,0.781,-23.621,-3.113,6.409
0.037,-0.585,0.771,-25.696,-3.418,5.066
0.037,-0.568,0.764,-27.588,-4.272,3.662
0.039,-0.571,0.756,-30.151,-5.493,2.563
0.039,-0.572,0.741,-32.288,-6.836,0.977
0.03,-0.582,0.744,-31.86,-8.24,-0.977
0.01,-0.589,0.758,-30.518,-8.911,-2.563
-0.003,-0.572,0.781,-26.184,-7.446,-2.808
-0.004,-0.575,0.762,-22.034,-6.042,-2.625
-0.002,-0.583,0.752,-18.005,-5.188,-2.258
0.006,-0.584,0.753,-13.428,-4.822,-1.648
0.005,-0.599,0.764,-9.766,-4.578,-1.404
0.004,-0.614,0.773,-7.996,-4.272,-1.038
0.002,-0.63,0.78,-7.812,-3.967,-0.244
0.003,-0.632,0.781,-8.24,-3.54,0.793
-0.001,-0.628,0.774,-8.606,-3.357,1.587
-0.002,-0.614,0.778,-8.057,-3.052,2.258
0,-0.604,0.787,-6.409,-2.441,2.747
0.003,-0.605,0.791,-5.005,-2.136,3.174
0.004,-0.598,0.788,-3.967,-1.892,3.601
0.001,-0.594,0.792,-3.052,-1.953,3.967
0.002,-0.589,0.801,-2.075,-1.831,4.15
0.001,-0.582,0.809,-1.221,-1.465,3.784
0,-0.565,0.807,-0.671,-1.343,3.357
-0.001,-0.562,0.809,0,-1.221,2.808
-0.008,-0.564,0.814,0.61,-1.16,2.38
-0.014,-0.567,0.815,1.221,-0.916,2.075
-0.016,-0.582,0.816,1.038,-0.427,1.77
-0.014,-0.599,0.821,-0.305,-0.244,1.648
-0.018,-0.598,0.825,-1.892,-0.305,1.953
-0.022,-0.587,0.825,-3.052,-0.61,2.014
-0.02,-0.585,0.821,-4.089,-0.61,1.892
-0.019,-0.577,0.816,-4.089,-0.488,2.075
-0.019,-0.574,0.812,-2.93,-0.366,2.502
-0.021,-0.569,0.81,-1.77,-0.061,2.808
-0.024,-0.562,0.803,-0.244,0.305,2.93
-0.021,-0.556,0.796,0.671,0.427,2.991
-0.012,-0.556,0.78,0.916,0.549,2.747
-0.002,-0.566,0.772,-0.122,-0.061,2.319
0.003,-0.572,0.78,-1.282,-0.977,1.953
0.005,-0.576,0.793,-1.831,-1.709,1.221
0,-0.585,0.804,-2.441,-2.197,0.732
-0.001,-0.591,0.807,-3.662,-2.38,0.732
0.007,-0.603,0.799,-6.042,-2.441,0.916
0.013,-0.608,0.809,-7.996,-2.991,0.977
0.008,-0.593,0.83,-8.545,-3.357,0.854
-0.002,-0.591,0.837,-7.629,-3.296,0.61
-0.001,-0.59,0.839,-5.859,-2.747,0.732
0.007,-0.588,0.834,-3.784,-1.77,0.977
0.009,-0.589,0.826,-2.197,-1.099,1.526
0.009,-0.581,0.818,-0.916,-0.427,1.587
0.01,-0.58,0.812,-0.427,-0.183,1.587
0.008,-0.577,0.807,-0.671,-0.183,1.648
-0.263,-1.426,0.526,-90.515,-2.075,-196.228
-0.206,-1.456,0.545,-132.08,-10.62,-182.312
-0.154,-1.324,0.532,-162.903,-19.287,-168.03
-0.148,-1.063,0.405,-170.41,-27.344,-155.457
-0.179,-0.849,0.32,-158.997,-35.645,-146.24
-0.187,-0.823,-0.03,-140.259,-42.603,-135.071
-0.413,-0.822,0.698,-119.507,-46.631,-120.605
-0.261,-1.915,0.709,-153.137,-34.607,-100.464
-0.092,-1.924,1,-157.349,-31.433,-55.115
-0.192,-1.526,1.048,-170.593,-28.32,-26.001
-0.045,-0.99,1.056,-163.757,-25.452,-12.207
-0.087,-0.661,1.061,-127.38,-23.01,-5.798
-0.126,-0.593,1.074,-76.721,-20.264,-4.395
-0.107,-0.576,1.044,-15.442,-13.306,-1.16
-0.106,-0.739,1.015,26.855,-5.859,5.859
-0.092,-0.868,0.981,45.715,1.099,17.09
-0.024,-0.926,0.938,46.143,5.859,28.015
0.043,-0.929,0.9,31.433,6.531,32.715
0.092,-0.891,0.863,7.629,5.371,32.104
0.103,-0.823,0.829,-18.372,2.014,28.809
0.1,-0.697,0.817,-39.063,-1.831,24.353
0.086,-0.578,0.821,-51.453,-5.615,19.592
0.055,-0.493,0.818,-57.495,-8.606,14.771
0.025,-0.446,0.813,-56.458,-10.315,10.864
0.011,-0.438,0.815,-51.331,-10.803,8.24
0.003,-0.433,0.839,-44.678,-10.559,5.859
-0.013,-0.444,0.864,-37.659,-9.949,4.395
-0.026,-0.476,0.892,-31.921,-8.972,3.174
-0.025,-0.509,0.9,-27.771,-7.202,2.258
-0.016,-0.511,0.901,-24.109,-5.005,1.892
-0.022,-0.49,0.892,-18.86,-2.869,1.465
-0.032,-0.484,0.854,-13.184,-0.549,0.854
-0.026,-0.477,0.805,-7.202,1.343,0.061
-0.011,-0.495,0.772,-2.319,2.136,-0.61
0,-0.511,0.758,-0.488,2.014,-0.793
0.003,-0.514,0.748,-0.488,1.099,-0.916
-0.001,-0.516,0.74,-0.977,-0.244,-1.038
-0.007,-0.523,0.742,-1.587,-1.526,-0.671
-0.009,-0.547,0.75,-3.174,-2.197,-0.305
-0.001,-0.562,0.765,-5.188,-2.869,0.366
0.002,-0.564,0.785,-6.836,-3.235,0.549
-0.001,-0.568,0.792,-7.996,-3.784,0.183
-0.005,-0.563,0.794,-7.263,-3.723,-0.305
-0.004,-0.562,0.8,-5.127,-3.235,-0.916
-0.004,-0.551,0.802,-3.296,-2.319,-1.526
-0.007,-0.548,0.802,-0.854,-1.648,-2.319
-0.006,-0.561,0.801,1.038,-1.343,-2.991
-0.002,-0.579,0.805,1.892,-1.099,-3.052
0.003,-0.6,0.809,2.93,-1.282,-2.563
0.006,-0.615,0.814,2.563,-1.526,-1.648
0,-0.622,0.818,0.244,-2.014,-0.122
-0.003,-0.615,0.84,-2.991,-2.625,1.221
-0.007,-0.602,0.852,-5.798,-3.235,2.686
-0.016,-0.581,0.85,-9.094,-3.54,3.54
-0.025,-0.557,0.847,-11.169,-3.662,4.089
-0.026,-0.538,0.837,-12.207,-3.601,4.272
-0.027,-0.519,0.836,-12.024,-3.784,4.211
-0.027,-0.506,0.841,-11.169,-3.967,3.784
-0.024,-0.498,0.843,-9.521,-4.089,3.418
-0.024,-0.502,0.841,-8.179,-3.906,2.991
-0.021,-0.497,0.839,-7.263,-3.845,2.38
-0.018,-0.504,0.842,-5.981,-3.906,1.709
-0.019,-0.527,0.847,-6.47,-3.967,0.916
-0.021,-0.534,0.85,-7.446,-3.845,0.427
-0.021,-0.528,0.851,-8.911,-3.906,-0.122
-0.028,-0.513,0.861,-9.583,-4.272,-0.122
-0.031,-0.513,0.861,-9.949,-4.028,-0.183
-0.026,-0.526,0.856,-10.742,-3.357,-0.122
-0.02,-0.522,0.849,-10.986,-3.113,0.366
-0.018,-0.509,0.849,-9.949,-3.113,0.244
-0.013,-0.518,0.855,-9.277,-2.991,-0.061
-0.006,-0.532,0.86,-9.949,-2.869,-0.305
-0.005,-0.535,0.862,-10.925,-2.869,-0.366
-0.006,-0.524,0.872,-10.193,-3.052,-0.366
-0.01,-0.515,0.877,-8.301,-2.808,-0.305
-0.014,-0.513,0.877,-5.981,-2.441,-0.061
-0.013,-0.52,0.877,-3.235,-1.892,0.122
-0.012,-0.533,0.872,-0.854,-1.526,0.549
-0.009,-0.545,0.872,-0.305,-1.221,0.793
-0.01,-0.546,0.88,-1.16,-1.099,0.854
-0.014,-0.539,0.878,-2.075,-0.977,1.038
-0.013,-0.533,0.868,-2.747,-0.916,0.977
-0.015,-0.524,0.855,-2.991,-0.61,1.526
-0.011,-0.512,0.834,-2.502,-0.427,1.648
-0.01,-0.51,0.821,-2.319,-0.671,2.197
-0.011,-0.506,0.825,-2.319,-0.977,2.441
-0.013,-0.503,0.831,-2.502,-1.709,2.441
-0.015,-0.507,0.843,-2.441,-2.197,2.197
-0.014,-0.514,0.854,-3.235,-2.38,2.075
-0.016,-0.507,0.866,-3.662,-2.319,1.953
-0.02,-0.512,0.872,-3.967,-1.892,1.831
-0.019,-0.509,0.869,-4.15,-1.343,1.953
-0.019,-0.497,0.859,-4.028,-0.854,2.075
-0.02,-0.497,0.84,-3.723,-0.427,1.953
-0.014,-0.5,0.839,-2.502,-0.244,1.77
-0.004,-0.507,0.84,-1.526,-0.061,1.892
-0.002,-0.515,0.843,-1.892,-0.122,1.77
-0.006,-0.519,0.847,-2.319,-0.366,1.526
-0.013,-0.516,0.847,-2.93,-0.61,1.404
-0.017,-0.511,0.844,-3.113,-0.793,1.465
-0.017,-0.509,0.84,-3.479,-0.793,1.648
-0.02,-0.508,0.834,-3.784,-1.038,1.648
-0.022,-0.512,0.833,-4.822,-1.16,1.648
-0.021,-0.509,0.843,-5.981,-1.465,2.197
-0.02,-0.509,0.855,-7.263,-1.892,2.38
-0.025,-0.511,0.863,-9.399,-2.075,2.319
-0.028,-0.514,0.862,-11.597,-2.38,2.075
-0.03,-0.504,0.86,-12.451,-2.686,1.831
-0.031,-0.494,0.864,-11.536,-2.808,1.587
-0.031,-0.49,0.865,-9.277,-2.869,1.343
-0.032,-0.493,0.866,-6.653,-2.502,1.099
-0.034,-0.496,0.862,-4.211,-2.075,1.587
-0.035,-0.501,0.867,-2.869,-1.648,2.625
-0.025,-0.513,0.883,-3.052,-1.587,3.784
-0.016,-0.517,0.9,-2.869,-1.404,4.883
-0.023,-0.52,0.909,-2.563,-1.282,5.432
-0.03,-0.509,0.908,-2.014,-0.793,5.981
-0.029,-0.497,0.9,-1.587,-0.366,6.47
-0.031,-0.484,0.886,-1.099,0,6.531
-0.077,-1.068,0.903,-37.781,-5.554,-16.663
-0.058,-0.903,0.932,-42.603,-5.188,-3.845
-0.093,-0.808,0.955,-46.082,-5.066,1.465
-0.077,-0.715,0.948,-45.837,-4.15,5.92
-0.048,-0.667,0.921,-41.26,-3.052,9.399
-0.051,-0.638,0.898,-35.217,-2.991,10.559
-0.052,-0.621,0.877,-31.555,-3.174,11.414
-0.048,-0.593,0.872,-28.015,-3.54,12.024
-0.04,-0.582,0.869,-25.452,-4.15,12.329
-0.037,-0.572,0.87,-23.315,-5.31,11.78
-0.041,-0.566,0.865,-21.423,-5.981,10.803
-0.053,-0.559,0.864,-21.362,-6.287,10.071
-0.058,-0.549,0.854,-20.874,-6.653,9.766
-0.055,-0.547,0.853,-20.813,-6.653,9.583
-0.052,-0.531,0.858,-21.362,-6.409,9.094
-0.046,-0.514,0.865,-21.606,-6.47,8.667
-0.048,-0.503,0.865,-19.775,-6.409,7.69
-0.055,-0.502,0.852,-18.066,-6.042,6.409
-0.058,-0.501,0.844,-16.663,-5.737,5.493
-0.058,-0.501,0.841,-14.648,-5.188,4.761
-0.057,-0.509,0.844,-12.939,-5.005,3.784
-0.06,-0.522,0.843,-10.681,-4.883,3.113
-0.067,-0.532,0.84,-8.301,-4.944,3.174
-0.071,-0.537,0.837,-6.775,-4.7,3.479
-0.069,-0.545,0.841,-6.287,-4.517,4.944
-0.063,-0.553,0.846,-6.531,-4.211,6.531
-0.052,-0.559,0.845,-7.812,-4.089,7.874
-0.049,-0.555,0.847,-9.644,-4.456,8.606
-0.048,-0.546,0.857,-10.376,-4.517,8.911
-0.054,-0.534,0.858,-10.132,-4.211,8.606
-0.058,-0.519,0.85,-8.667,-3.418,8.24
-0.057,-0.497,0.841,-6.653,-2.625,8.057
-0.05,-0.482,0.832,-4.028,-1.709,7.629
-0.044,-0.479,0.825,-2.075,-0.977,6.958
-0.046,-0.479,0.828,-0.61,-0.732,5.92
-0.053,-0.484,0.832,1.282,-0.732,4.7
-0.056,-0.491,0.833,2.014,-0.549,3.662
-0.052,-0.499,0.833,2.319,-0.183,2.93
-0.043,-0.507,0.833,1.587,0.244,2.136
-0.037,-0.513,0.832,0.122,0.244,1.648
-0.032,-0.515,0.826,-1.831,0.183,1.404
-0.031,-0.518,0.825,-3.418,-0.061,1.099
-0.034,-0.522,0.832,-4.578,-0.427,0.977
-0.04,-0.533,0.853,-5.432,-0.366,0.854
-0.046,-0.548,0.863,-5.798,0.122,0.854
-0.053,-0.531,0.875,-4.883,1.099,1.709
-0.059,-0.509,0.871,-1.953,2.38,2.319
-0.054,-0.5,0.85,1.465,3.052,2.747
-0.042,-0.51,0.832,4.639,3.662,2.747
-0.024,-0.52,0.828,5.981,3.357,2.502
-0.012,-0.538,0.824,5.615,2.625,2.502
-0.014,-0.543,0.822,3.662,1.77,1.831
-0.027,-0.534,0.822,1.221,0.793,1.16
-0.038,-0.526,0.822,-1.892,0.061,1.038
-0.042,-0.516,0.817,-5.188,-0.488,1.16
-0.04,-0.504,0.819,-7.507,-1.221,1.465
-0.04,-0.501,0.826,-9.521,-1.953,1.16
-0.046,-0.503,0.824,-12.146,-2.747,0.61
-0.053,-0.496,0.816,-14.16,-3.479,0.122
-0.055,-0.485,0.813,-13.794,-3.906,-0.671
-0.052,-0.484,0.82,-12.329,-4.272,-1.221
-0.057,-0.479,0.83,-11.536,-4.761,-1.892
-0.05,-0.487,0.841,-11.597,-4.761,-1.648
-0.044,-0.5,0.849,-12.512,-4.761,-1.587
-0.044,-0.5,0.863,-12.695,-5.31,-1.831
-0.05,-0.501,0.875,-10.986,-5.371,-1.953
-0.058,-0.496,0.885,-9.033,-4.7,-1.221
-0.061,-0.488,0.887,-6.714,-3.723,-0.183
-0.059,-0.484,0.888,-4.089,-3.052,0.549
-0.057,-0.49,0.889,-1.343,-2.502,1.16
-0.056,-0.503,0.892,0.122,-2.136,1.343
-0.05,-0.509,0.889,0.427,-1.587,1.343
-0.043,-0.511,0.891,-0.244,-1.282,1.16
-0.04,-0.511,0.891,-1.038,-1.099,0.854
-0.043,-0.508,0.886,-2.075,-1.099,0.549
-0.046,-0.498,0.882,-3.662,-1.16,0.427
-0.051,-0.489,0.878,-3.967,-1.038,0.122
-0.055,-0.49,0.873,-3.723,-1.099,-0.183
-0.058,-0.495,0.868,-3.235,-1.038,-0.183
-0.059,-0.501,0.863,-2.808,-0.916,-0.122
-0.058,-0.505,0.872,-2.869,-0.977,0.122
-0.059,-0.506,0.885,-2.197,-0.916,0.427
-0.06,-0.507,0.893,-1.648,-0.793,0.366
-0.059,-0.507,0.891,-1.282,-0.488,0.61
-0.059,-0.502,0.879,-1.465,-0.122,0.61
-0.061,-0.503,0.855,-1.892,0.305,0.732
-0.059,-0.506,0.849,-1.953,0.488,1.099
-0.048,-0.509,0.863,-1.465,0.122,1.587
-0.041,-0.506,0.875,-2.502,-0.427,1.587
-0.045,-0.498,0.881,-3.906,-0.793,1.282
-0.053,-0.498,0.877,-5.127,-0.854,1.038
-0.057,-0.498,0.865,-6.165,-0.977,1.038
-0.055,-0.498,0.861,-6.836,-0.916,1.587
-0.05,-0.501,0.865,-7.69,-1.099,2.075
-0.048,-0.502,0.863,-8.972,-1.587,2.38
-0.047,-0.501,0.858,-10.864,-1.77,1.953
-0.051,-0.496,0.854,-11.597,-1.709,1.648
-0.06,-0.489,0.853,-10.01,-1.77,1.404
-0.062,-0.478,0.861,-8.179,-1.831,1.831
-0.058,-0.476,0.865,-6.836,-1.831,1.892
-0.055,-0.482,0.866,-6.104,-1.465,1.77
-0.06,-0.482,0.861,-5.554,-1.221,2.075
-0.062,-0.466,0.854,-5.005,-1.099,2.502
-0.063,-0.453,0.853,-2.686,-0.977,2.747
-0.062,-0.471,0.859,-0.305,-0.977,2.686
-0.063,-0.469,0.863,-0.671,-1.282,2.869
-0.063,-0.46,0.866,-1.282,-1.404,2.869
-0.062,-0.46,0.869,-1.404,-1.831,2.747
-0.062,-0.473,0.875,-1.221,-1.892,1.953
-0.07,-0.479,0.88,-1.709,-1.648,1.587
-0.072,-0.472,0.883,-2.686,-1.709,1.282
-0.066,-0.462,0.879,-3.418,-1.77,1.343
-0.062,-0.478,0.876,-2.991,-1.282,1.526
-0.059,-0.489,0.881,-2.258,-1.038,1.831
-0.058,-0.486,0.889,-1.892,-0.854,2.441
-0.058,-0.479,0.894,-1.282,-0.732,2.686
-0.06,-0.478,0.894,-1.099,-0.488,2.747
-0.06,-0.48,0.891,-1.16,-0.366,3.052
-0.062,-0.478,0.89,-1.221,-0.305,3.113
-0.506,-0.59,0.988,-70.129,-30.823,-173.279
-0.535,-0.623,1,-54.26,-28.015,-163.391
-0.562,-0.65,0.985,-39.673,-23.926,-152.161
-0.543,-0.65,0.997,-30.579,-20.203,-140.991
-0.532,-0.7,1.007,-25.94,-17.395,-130.188
-0.404,-0.639,0.954,-22.644,-14.587,-117.065
-0.412,-0.459,0.991,-23.926,-14.038,-105.469
-0.526,-0.547,1.172,-20.63,-14.038,-96.863
-0.293,-0.662,1.235,-5.554,-5.981,-79.895
-0.194,-0.73,1.067,14.343,1.709,-56.274
-0.166,-0.647,0.834,17.212,-0.427,-43.152
-0.239,-0.528,0.873,2.38,-7.019,-34.363
-0.238,-0.409,0.931,-4.333,-10.925,-26.123
-0.208,-0.505,0.962,-6.165,-12.268,-21.729
-0.171,-0.584,0.964,-7.263,-12.756,-12.573
-0.16,-0.582,0.953,-7.019,-13.306,-3.357
-0.183,-0.546,0.952,-8.606,-14.465,2.014
-0.163,-0.482,0.964,-10.986,-14.16,4.944
-0.127,-0.418,0.977,-9.888,-12.878,7.202
-0.114,-0.372,0.991,-3.357,-12.207,8.972
-0.118,-0.349,1.006,7.996,-11.23,10.376
-0.107,-0.362,0.999,17.029,-8.789,11.047
-0.081,-0.397,1.008,20.752,-6.592,12.39
-0.073,-0.425,0.998,21.301,-4.639,13.062
-0.077,-0.44,0.989,18.555,-3.662,13.733
-0.072,-0.443,0.992,11.658,-2.869,14.709
-0.067,-0.428,0.988,2.563,-2.38,17.395
-0.071,-0.316,0.99,-4.211,-2.502,18.982
-0.084,-0.224,0.997,-7.751,-2.686,17.639
-0.095,-0.196,0.985,-8.85,-2.686,14.709
-0.103,-0.198,0.985,-7.69,-2.625,11.719
-0.103,-0.205,0.977,-5.371,-1.526,9.277
-0.103,-0.217,0.968,-2.136,-0.183,6.958
-0.096,-0.249,0.957,0.916,1.282,4.7
-0.086,-0.27,0.936,3.052,2.38,2.808
-0.079,-0.326,0.909,3.601,2.625,1.099
-0.073,-0.304,0.88,2.136,2.136,0.244
-0.074,-0.295,0.874,0.61,0.671,-0.793
-0.077,-0.312,0.874,-1.038,-0.732,-1.831
-0.074,-0.336,0.88,-3.723,-1.465,-2.014
-0.076,-0.363,0.886,-5.493,-2.136,-1.343
-0.08,-0.368,0.9,-5.127,-2.441,-0.061
-0.084,-0.367,0.909,-3.662,-2.747,1.099
-0.084,-0.369,0.912,-2.625,-2.93,1.953
-0.083,-0.365,0.925,-2.136,-2.991,2.075
-0.079,-0.377,0.931,-2.686,-3.052,1.892
-0.074,-0.384,0.932,-3.845,-3.235,1.648
-0.072,-0.382,0.937,-5.005,-3.479,0.977
-0.067,-0.378,0.943,-6.287,-3.54,0.244
-0.065,-0.379,0.945,-7.385,-3.418,0
-0.073,-0.381,0.95,-6.592,-3.296,0.183
-0.084,-0.372,0.952,-4.15,-2.808,0.732
-0.089,-0.36,0.949,-1.343,-1.77,1.587
-0.086,-0.366,0.941,0.793,-0.916,2.808
-0.085,-0.382,0.932,1.709,-0.183,3.418
-0.083,-0.382,0.923,1.099,0,3.845
-0.082,-0.366,0.92,-0.977,-0.122,4.639
-0.082,-0.348,0.918,-3.479,-0.732,4.822
-0.085,-0.335,0.919,-5.493,-1.526,4.333
-0.097,-0.314,0.931,-6.897,-2.075,3.601
-0.088,-0.326,0.927,-7.446,-2.441,2.258
-0.089,-0.314,0.921,-8.423,-1.953,2.441
-0.097,-0.315,0.918,-9.521,-1.953,2.441
-0.102,-0.315,0.917,-10.01,-1.953,2.38
-0.097,-0.314,0.915,-9.521,-2.258,2.258
-0.094,-0.308,0.92,-8.484,-2.319,2.258
-0.097,-0.304,0.925,-7.812,-2.441,2.38
-0.097,-0.296,0.926,-7.019,-2.319,2.686
-0.094,-0.289,0.917,-5.981,-2.502,2.93
-0.089,-0.298,0.913,-5.371,-2.747,3.113
-0.086,-0.315,0.913,-5.432,-2.991,3.357
-0.082,-0.319,0.919,-5.981,-2.991,4.028
-0.076,-0.312,0.928,-7.324,-3.235,4.517
-0.073,-0.306,0.938,-8.179,-3.784,4.761
-0.076,-0.29,0.953,-7.141,-4.089,4.639
-0.079,-0.287,0.968,-4.456,-4.089,3.967
-0.081,-0.295,0.977,-2.441,-3.601,2.93
-0.08,-0.306,0.977,-0.671,-2.991,2.319
-0.077,-0.309,0.969,0.427,-2.136,2.014
-0.077,-0.312,0.958,0.671,-1.404,1.526
-0.076,-0.327,0.949,0.061,-0.61,0.549
-0.073,-0.339,0.949,-0.671,0.183,0.183
-0.067,-0.341,0.947,-1.282,0.549,0.122
-0.067,-0.341,0.936,-1.587,0.61,-0.305
-0.068,-0.348,0.932,-2.319,0.977,-0.671
-0.07,-0.353,0.923,-1.892,0.977,-0.671
-0.078,-0.352,0.926,-0.61,1.099,-0.488
-0.082,-0.351,0.93,-0.122,1.099,0.366
-0.094,-0.347,0.925,-0.977,1.038,0.977
-0.094,-0.321,0.926,-2.075,1.099,1.709
-0.095,-0.316,0.928,-2.075,0.977,1.892
-0.091,-0.336,0.921,-2.441,0.671,2.258
-0.088,-0.314,0.918,-3.723,0.671,3.113
-0.086,-0.298,0.923,-5.005,-0.061,3.662
-0.084,-0.284,0.93,-5.127,-0.61,3.784
-0.088,-0.276,0.932,-5.188,-0.854,3.784
-0.097,-0.266,0.932,-4.517,-0.916,3.296
-0.1,-0.257,0.937,-3.174,-0.977,3.235
-0.101,-0.264,0.937,-1.953,-0.549,3.723
-0.098,-0.264,0.937,-0.732,-0.244,3.723
-0.096,-0.27,0.939,0.061,-0.183,3.235
-0.092,-0.273,0.935,0.305,-0.488,2.869
-0.091,-0.278,0.932,0.732,-0.793,2.075
-0.09,-0.29,0.941,1.16,-0.916,1.282
-0.086,-0.29,0.949,1.343,-0.61,0.488
-0.089,-0.295,0.945,1.831,-0.549,0
-0.087,-0.298,0.944,2.625,-0.427,-0.427
-0.074,-0.306,0.946,3.479,-0.122,-0.488
-0.081,-0.321,0.953,3.845,0.305,-0.549
-0.079,-0.33,0.955,3.235,0.061,-0.366
-0.075,-0.334,0.955,2.93,0.305,-0.183
-0.074,-0.345,0.955,2.747,0.183,-0.061
-0.083,-0.348,0.956,1.77,-0.061,0.305
-0.084,-0.353,0.955,0.488,-0.366,0.549
-0.08,-0.344,0.95,-0.427,-0.305,0.916
-0.08,-0.343,0.947,-1.587,-0.305,1.343
-0.085,-0.343,0.944,-2.197,-0.305,2.014
-0.086,-0.333,0.942,-2.197,0.061,2.93
-0.081,-0.317,0.942,-2.563,0.244,4.028
-0.071,-1.182,0.89,-13.977,2.258,-49.316
-0.01,-0.971,0.893,-19.165,2.197,-31.982
-0.025,-0.836,0.915,-20.63,1.465,-26.428
-0.03,-0.819,0.949,-19.958,0,-24.963
-0.01,-0.824,0.972,-11.169,-1.099,-20.996
-0.008,-0.862,0.969,-3.54,-1.343,-17.639
-0.013,-0.86,0.932,0.916,-1.343,-14.282
-0.013,-0.901,0.899,5.127,-0.977,-9.399
-0.005,-0.913,0.891,7.507,-0.549,-3.601
0,-0.853,0.889,5.981,-0.183,2.197
-0.006,-0.811,0.874,3.052,-0.854,6.348
-0.011,-0.802,0.856,-0.488,-1.343,8.85
-0.011,-0.786,0.84,-5.31,-1.648,11.475
-0.007,-0.762,0.825,-11.475,-2.197,14.343
0,-0.726,0.814,-18.616,-2.686,16.479
-0.002,-0.679,0.814,-23.743,-3.235,17.578
-0.001,-0.647,0.813,-27.893,-3.784,17.273
0.004,-0.616,0.81,-31.128,-4.333,16.479
0.004,-0.595,0.807,-32.166,-4.761,15.259
0.005,-0.578,0.803,-32.776,-5.249,13.977
0.004,-0.567,0.802,-33.203,-5.554,12.451
0.003,-0.55,0.801,-33.63,-5.493,11.047
-0.003,-0.524,0.804,-33.02,-5.188,9.583
-0.009,-0.512,0.805,-31.372,-4.456,8.179
-0.011,-0.504,0.799,-29.724,-3.845,7.263
-0.012,-0.501,0.789,-27.588,-3.052,6.104
-0.009,-0.489,0.787,-23.987,-2.686,5.127
-0.011,-0.474,0.793,-17.578,-2.136,3.723
-0.015,-0.474,0.794,-11.047,-1.77,1.892
-0.018,-0.483,0.789,-5.432,-1.526,0.061
-0.022,-0.492,0.783,-1.404,-0.916,-1.16
-0.025,-0.5,0.774,0.854,-0.671,-1.709
-0.027,-0.51,0.772,1.892,-0.61,-2.136
-0.027,-0.524,0.768,1.892,-0.732,-2.319
-0.027,-0.538,0.769,0.916,-0.977,-2.258
-0.03,-0.549,0.768,-0.61,-1.77,-2.197
-0.032,-0.562,0.78,-2.441,-2.319,-1.77
-0.028,-0.562,0.788,-4.761,-2.686,-0.854
-0.025,-0.556,0.792,-5.92,-3.052,-0.366
-0.023,-0.557,0.795,-5.798,-3.357,-0.305
-0.023,-0.557,0.805,-4.578,-3.723,0.122
-0.024,-0.555,0.818,-3.967,-3.845,0.488
-0.025,-0.553,0.835,-3.296,-3.845,0.916
-0.026,-0.559,0.844,-2.014,-3.784,0.793
-0.027,-0.568,0.844,-0.916,-3.418,0.793
-0.029,-0.57,0.845,-0.427,-2.93,0.977
-0.032,-0.573,0.848,-0.244,-2.38,1.587
-0.03,-0.579,0.851,-0.61,-2.075,1.953
-0.022,-0.583,0.852,-2.197,-1.953,2.319
-0.018,-0.58,0.858,-3.54,-2.136,2.441
-0.023,-0.574,0.86,-3.784,-2.258,2.136
-0.026,-0.569,0.858,-4.456,-2.136,1.892
-0.025,-0.566,0.853,-5.554,-1.953,1.648
-0.031,-0.563,0.856,-5.737,-1.831,1.16
-0.034,-0.555,0.864,-5.249,-1.709,1.099
-0.032,-0.553,0.865,-4.944,-1.465,1.221
-0.029,-0.549,0.865,-5.005,-1.221,1.343
-0.027,-0.546,0.865,-4.944,-1.16,1.404
-0.023,-0.553,0.865,-4.822,-0.916,1.465
-0.018,-0.558,0.863,-5.005,-0.732,1.465
-0.019,-0.55,0.858,-5.371,-0.61,1.648
-0.019,-0.536,0.854,-5.737,-0.671,1.465
-0.02,-0.536,0.848,-5.493,-1.038,1.221
-0.023,-0.545,0.847,-4.944,-1.465,0.854
-0.023,-0.552,0.849,-5.92,-1.77,0.854
-0.022,-0.548,0.848,-7.507,-1.648,1.16
-0.025,-0.541,0.848,-9.399,-1.587,1.282
-0.03,-0.528,0.851,-10.437,-1.343,1.282
-0.031,-0.521,0.855,-9.155,-1.404,1.099
-0.027,-0.521,0.851,-7.629,-0.854,1.038
-0.021,-0.518,0.847,-5.981,-0.732,0.916
-0.019,-0.521,0.844,-4.761,-0.61,0.366
-0.025,-0.525,0.846,-3.357,-0.549,-0.122
-0.029,-0.533,0.848,-2.197,-0.488,-0.488
-0.029,-0.539,0.847,-2.075,-0.183,-0.732
-0.029,-0.541,0.845,-2.869,0.122,-0.916
-0.032,-0.54,0.84,-3.54,0.305,-1.038
-0.031,-0.541,0.836,-4.272,0.244,-0.977
-0.024,-0.538,0.829,-4.822,0.244,-0.549
-0.021,-0.534,0.822,-5.066,0.061,-0.366
-0.021,-0.535,0.821,-4.639,-0.488,-0.061
-0.021,-0.542,0.823,-5.31,-0.854,0.305
-0.024,-0.54,0.822,-6.653,-1.038,0.732
-0.025,-0.52,0.821,-6.958,-1.282,1.099
-0.024,-0.516,0.826,-5.981,-1.892,1.099
-0.025,-0.526,0.832,-5.676,-1.953,1.343
-0.03,-0.529,0.839,-5.127,-2.014,1.648
-0.034,-0.524,0.843,-4.456,-1.892,1.831
-0.034,-0.524,0.851,-4.028,-1.831,2.319
-0.032,-0.524,0.86,-4.089,-1.709,2.93
-0.031,-0.524,0.862,-4.028,-1.526,3.296
-0.035,-0.519,0.857,-3.906,-1.221,3.052
-0.03,-0.511,0.849,-3.967,-1.16,2.869
-0.025,-0.511,0.844,-3.845,-1.465,2.93
-0.025,-0.515,0.846,-4.089,-1.526,2.808
-0.026,-0.507,0.846,-5.371,-1.282,2.686
-0.027,-0.501,0.848,-5.371,-1.16,2.441
-0.026,-0.499,0.849,-4.395,-0.977,1.892
-0.028,-0.499,0.851,-3.662,-1.038,1.648
-0.031,-0.5,0.85,-2.869,-0.793,1.16
-0.032,-0.505,0.849,-2.38,-0.732,0.61
-0.032,-0.506,0.85,-2.136,-0.732,-0.061
-0.031,-0.505,0.855,-1.221,-0.854,-0.427
-0.031,-0.51,0.86,-0.366,-0.732,-0.61
-0.031,-0.511,0.86,0.366,-0.671,-0.671
-0.033,-0.513,0.861,0.732,-0.488,-0.549
-0.033,-0.52,0.861,1.038,-0.244,-0.305
-0.031,-0.531,0.865,1.099,-0.122,0.183
-0.032,-0.533,0.868,1.038,-0.122,0.732
-0.028,-0.531,0.868,0.183,-0.183,1.16
-0.024,-0.526,0.866,-0.671,-0.366,1.343
-0.026,-0.524,0.865,-1.526,-0.549,1.221
-0.029,-0.523,0.861,-2.197,-0.732,1.221
-0.031,-0.521,0.858,-2.869,-0.854,1.526
-0.028,-0.515,0.86,-3.479,-0.854,1.831
-0.029,-0.512,0.862,-4.089,-0.916,1.892
-0.032,-0.51,0.858,-4.822,-0.977,1.77
-0.035,-0.502,0.855,-5.005,-0.916,1.77
-0.035,-0.499,0.852,-4.395,-1.038,1.709
0.489,0.717,0.831,-23.437,18.799,-72.632
0.481,0.745,0.822,-24.902,19.836,-84.778
0.467,0.773,0.804,-26.428,21.057,-96.375
0.465,0.753,0.783,-29.236,22.461,-108.215
0.463,0.712,0.758,-32.898,23.56,-119.568
0.461,0.678,0.731,-36.743,24.475,-130.432
0.472,0.649,0.696,-40.588,25.269,-140.747
0.466,0.617,0.663,-43.518,25.574,-150.024
0.471,0.591,0.636,-46.509,25.452,-158.691
0.467,0.571,0.627,-48.523,24.902,-167.969
0.489,0.537,0.611,-50.659,24.109,-176.88
0.484,0.51,0.604,-50.598,21.484,-185.486
0.477,0.483,0.584,-49.438,18.616,-193.787
0.477,0.463,0.559,-46.509,16.174,-201.416
0.464,0.44,0.541,-41.626,13.367,-208.069
0.45,0.413,0.519,-34.485,10.62,-214.844
0.436,0.366,0.491,-26.428,8.057,-221.558
0.436,0.295,0.488,-19.592,5.066,-227.6
0.439,0.202,0.496,-15.869,2.441,-232.422
0.44,0.117,0.49,-13.855,-0.732,-236.572
0.438,0.047,0.48,-14.404,-4.7,-239.746
0.441,-0.012,0.469,-17.395,-9.094,-243.042
0.437,-0.063,0.456,-20.996,-15.198,-246.338
0.418,-0.101,0.443,-22.827,-22.583,-249.451
0.383,-0.12,0.442,-22.156,-30.029,-252.563
0.369,-0.137,0.448,-14.16,-37.17,-255.798
0.317,-0.158,0.444,1.16,-44.128,-259.399
0.292,-0.231,0.43,18.86,-49.5,-262.573
0.248,-0.368,0.401,37.048,-54.138,-264.771
0.197,-0.534,0.374,48.889,-58.167,-263.977
0.203,-0.715,0.383,47.241,-63.416,-258.667
0.182,-0.983,0.426,28.992,-71.533,-249.39
0.125,-1.237,0.512,-14.221,-80.505,-236.389
0.101,-1.279,0.621,-65.186,-91.614,-222.473
0.063,-1.183,0.731,-105.103,-104.675,-213.318
0.029,-1.027,0.811,-134.46,-116.211,-206.299
0.031,-0.868,0.881,-150.33,-124.023,-199.89
0.038,-0.768,0.936,-154.053,-128.967,-193.665
0.019,-0.696,0.965,-146.057,-130.249,-184.631
-0.026,-0.654,0.982,-133.728,-128.113,-174.194
-0.076,-0.612,0.976,-121.704,-123.535,-163.635
-0.104,-0.574,0.983,-111.694,-117.859,-153.198
-0.123,-0.558,1.012,-104.126,-111.816,-144.348
-0.139,-0.566,1.044,-98.206,-105.225,-137.085
-0.147,-0.576,1.106,-94.177,-98.083,-130.859
-0.167,-0.573,1.146,-87.097,-91.309,-125.427
-0.187,-0.544,1.172,-75.439,-83.801,-119.812
-0.206,-0.52,1.18,-61.523,-75.256,-113.464
-0.194,-0.499,1.176,-48.523,-65.552,-107.239
-0.184,-0.487,1.156,-37.109,-56.152,-100.403
-0.159,-0.488,1.126,-28.992,-47.668,-93.628
-0.108,-0.502,1.102,-24.719,-41.016,-86.609
-0.085,-0.5,1.11,-23.437,-36.926,-79.895
-0.076,-0.49,1.134,-22.766,-34.119,-73.547
-0.059,-0.471,1.153,-21.912,-32.471,-67.505
-0.045,-0.424,1.048,-17.578,-32.104,-61.584
-0.146,-0.328,1.271,-8.057,-31.921,-57.983
-0.095,-0.537,1.26,-1.892,-24.475,-53.528
-0.044,-0.555,1.154,5.066,-20.813,-43.213
-0.069,-0.453,1.058,7.996,-20.508,-35.645
-0.079,-0.464,1.094,4.272,-18.616,-31.738
-0.075,-0.568,1.178,2.075,-15.32,-24.231
-0.069,-0.655,1.22,-2.014,-11.414,-13.794
-0.055,-0.637,1.192,-8.667,-8.667,-3.723
-0.053,-0.554,1.146,-14.526,-6.775,3.357
-0.045,-0.442,1.109,-17.029,-5.615,7.568
-0.031,-0.362,1.059,-16.602,-4.883,9.338
-0.027,-0.353,1.023,-15.32,-4.7,9.766
-0.026,-0.336,1.004,-14.099,-4.333,11.047
-0.026,-0.329,0.986,-15.015,-3.601,12.756
-0.021,-0.325,0.958,-18.799,-2.808,14.038
-0.016,-0.309,0.933,-23.193,-2.563,14.343
-0.01,-0.284,0.928,-28.442,-2.747,13.916
0.003,-0.25,0.922,-33.02,-3.418,13.123
0.009,-0.225,0.91,-34.241,-4.456,11.475
0.005,-0.205,0.904,-32.593,-5.737,8.85
0,-0.191,0.898,-28.625,-6.592,6.47
-0.001,-0.181,0.888,-23.499,-6.958,4.517
0,-0.17,0.901,-18.005,-7.324,3.296
0.002,-0.187,0.921,-13.916,-7.385,2.319
0.002,-0.212,0.94,-11.169,-7.507,1.587
-0.002,-0.234,0.945,-10.071,-7.69,1.099
-0.007,-0.238,0.956,-10.01,-7.69,0.854
-0.013,-0.241,0.979,-10.62,-7.507,0.244
-0.02,-0.26,0.982,-11.902,-6.47,0.061
-0.026,-0.246,0.965,-12.512,-5.432,0.366
-0.034,-0.23,0.971,-12.512,-4.761,0.549
-0.038,-0.24,0.963,-12.207,-3.54,0.732
-0.045,-0.221,0.959,-9.705,-2.625,1.526
-0.051,-0.212,0.951,-7.751,-1.77,2.014
-0.049,-0.216,0.94,-5.859,-1.16,3.052
-0.047,-0.22,0.946,-4.333,-1.038,3.723
-0.041,-0.225,0.948,-3.723,-0.977,4.272
-0.039,-0.227,0.949,-3.235,-1.16,4.7
-0.044,-0.228,0.954,-3.662,-1.404,4.944
-0.052,-0.226,0.958,-4.395,-1.587,5.005
-0.06,-0.221,0.958,-5.188,-1.465,5.066
-0.058,-0.212,0.959,-5.859,-1.404,5.31
-0.049,-0.208,0.959,-6.714,-1.099,5.249
-0.041,-0.208,0.959,-7.568,-1.16,5.127
-0.038,-0.208,0.957,-8.667,-1.404,4.761
-0.036,-0.206,0.962,-9.46,-1.831,4.395
-0.037,-0.206,0.967,-10.498,-2.075,4.15
-0.042,-0.209,0.97,-11.292,-2.441,3.723
-0.047,-0.209,0.973,-12.146,-2.441,3.54
-0.045,-0.209,0.978,-12.451,-2.441,3.54
-0.049,-0.218,0.974,-12.085,-2.014,3.784
-0.049,-0.221,0.973,-12.207,-1.465,4.639
-0.046,-0.218,0.974,-12.939,-1.282,5.798
-0.043,-0.211,0.97,-14.16,-0.977,6.653
-0.041,-0.202,0.971,-14.16,-1.221,7.446
-0.038,-0.201,0.968,-13.611,-1.282,7.935
-0.04,-0.206,0.961,-13.367,-1.282,7.812
-0.041,-0.208,0.953,-13.367,-1.221,7.812
-0.039,-0.203,0.953,-14.099,-1.465,8.118
-0.031,-0.19,0.957,-15.442,-1.282,8.301
-0.025,-0.18,0.961,-16.846,-1.526,8.179
-0.029,-0.174,0.964,-18.188,-1.648,7.446
-0.032,-0.167,0.963,-18.982,-1.892,6.653
-0.059,-0.787,1.195,-40.588,-10.376,-22.766
-0.037,-0.706,1.137,-45.837,-6.226,-16.113
-0.004,-0.615,1.072,-47.18,-3.845,-11.047
0.025,-0.521,1.026,-40.161,-3.235,-8.301
0.034,-0.45,1.006,-22.705,-3.357,-8.423
0.045,-0.462,1.003,-2.075,-3.54,-9.277
0.013,-0.492,1,14.465,-3.357,-7.812
-0.007,-0.509,1.007,26.917,-2.075,-4.089
-0.008,-0.563,1.017,31.799,-0.427,-0.488
0,-0.594,1.019,27.1,0.549,3.967
0.003,-0.586,1.018,16.113,0.549,8.057
0.01,-0.556,1.007,3.052,-0.122,10.01
0.014,-0.507,0.989,-7.507,-1.465,10.376
0.013,-0.465,0.959,-15.137,-2.258,10.437
0.005,-0.434,0.937,-18.188,-3.235,10.254
0.002,-0.409,0.916,-18.921,-3.601,10.071
-0.006,-0.381,0.901,-18.677,-3.784,10.315
-0.01,-0.361,0.903,-17.822,-4.028,10.193
-0.016,-0.35,0.906,-17.273,-3.906,9.888
-0.017,-0.346,0.905,-16.907,-3.601,9.766
-0.016,-0.349,0.907,-17.273,-3.357,9.46
-0.012,-0.347,0.907,-17.944,-2.686,8.972
-0.005,-0.341,0.9,-18.677,-2.319,8.545
0.002,-0.33,0.892,-18.372,-2.136,7.812
0.003,-0.324,0.893,-15.381,-2.197,6.592
0.003,-0.323,0.885,-12.878,-2.075,5.371
0.005,-0.319,0.875,-10.071,-1.892,4.089
0.003,-0.318,0.868,-6.775,-1.465,2.808
0.002,-0.316,0.868,-4.15,-1.465,1.953
0.005,-0.321,0.868,-2.502,-1.343,1.099
0.004,-0.334,0.871,-1.404,-1.526,0.122
0.002,-0.346,0.873,-1.099,-1.648,-0.61
-0.003,-0.359,0.875,-1.16,-1.953,-1.16
-0.003,-0.372,0.875,-1.404,-2.136,-1.587
-0.001,-0.379,0.885,-2.502,-2.319,-1.587
0.002,-0.386,0.892,-4.883,-2.38,-1.77
0.004,-0.391,0.898,-6.897,-2.686,-1.831
0.001,-0.396,0.912,-8.179,-2.93,-1.953
-0.007,-0.39,0.921,-9.277,-3.296,-1.831
-0.008,-0.391,0.928,-8.179,-3.235,-1.77
-0.012,-0.392,0.929,-6.348,-2.686,-1.343
-0.012,-0.383,0.934,-4.272,-2.197,-0.793
-0.009,-0.379,0.941,-1.526,-1.648,-0.305
-0.001,-0.394,0.944,0.671,-1.343,0.305
-0.001,-0.407,0.948,1.343,-1.282,0.732
-0.004,-0.408,0.951,1.099,-0.916,1.404
-0.004,-0.4,0.954,0,-0.732,1.953
-0.001,-0.391,0.95,-0.977,-0.305,2.441
0,-0.384,0.943,-2.136,-0.122,2.747
0,-0.377,0.937,-3.113,-0.061,2.93
0.002,-0.368,0.931,-4.944,-0.244,3.113
0.004,-0.363,0.922,-6.836,-0.122,3.479
0.001,-0.36,0.914,-8.667,-0.244,3.113
-0.001,-0.359,0.906,-10.132,-0.671,3.113
-0.003,-0.356,0.901,-11.658,-0.977,3.174
-0.004,-0.351,0.903,-13.367,-1.709,3.174
-0.005,-0.348,0.908,-14.648,-2.502,3.052
0,-0.344,0.916,-15.625,-3.052,2.808
0.002,-0.347,0.92,-17.029,-3.662,2.502
0,-0.35,0.925,-17.883,-3.967,2.075
-0.003,-0.341,0.934,-17.517,-4.211,2.014
-0.005,-0.333,0.945,-15.625,-4.028,1.892
-0.006,-0.323,0.948,-14.099,-3.723,1.709
-0.008,-0.314,0.949,-12.268,-3.296,1.343
-0.007,-0.31,0.95,-9.766,-2.808,0.732
-0.005,-0.319,0.954,-7.507,-2.075,0.183
-0.001,-0.328,0.953,-6.226,-1.526,0.061
-0.003,-0.328,0.953,-5.371,-1.038,0
-0.006,-0.324,0.95,-4.822,-0.732,-0.122
-0.005,-0.326,0.946,-4.333,-0.427,-0.244
-0.003,-0.333,0.938,-4.333,-0.366,-0.244
-0.001,-0.331,0.942,-5.31,-0.427,-0.183
0,-0.33,0.946,-5.798,-0.916,-0.183
0,-0.327,0.953,-6.775,-1.16,-0.488
0,-0.321,0.961,-7.751,-1.099,-0.671
-0.002,-0.314,0.964,-7.935,-1.099,-1.099
-0.008,-0.32,0.966,-7.812,-0.977,-1.587
-0.009,-0.337,0.966,-7.874,-0.366,-1.892
-0.006,-0.335,0.968,-7.446,0.366,-0.793
-0.006,-0.328,0.976,-6.531,0.488,-0.793
-0.005,-0.33,0.974,-4.395,0.488,-0.793
-0.008,-0.33,0.967,-2.808,0.488,-0.854
-0.008,-0.335,0.961,-2.258,0.916,-0.671
-0.007,-0.343,0.955,-2.38,1.099,-0.183
-0.007,-0.348,0.959,-2.747,1.16,0.61
-0.008,-0.343,0.962,-3.845,1.099,1.465
-0.009,-0.337,0.954,-5.249,1.221,2.136
-0.008,-0.331,0.944,-6.409,1.099,2.441
-0.005,-0.324,0.939,-7.263,0.916,2.808
-0.001,-0.317,0.935,-7.69,0.549,3.052
-0.005,-0.315,0.93,-8.179,0.183,3.174
-0.005,-0.314,0.925,-8.728,-0.122,3.418
-0.008,-0.306,0.928,-8.301,-0.793,3.54
-0.01,-0.304,0.941,-7.996,-0.916,3.479
-0.013,-0.299,0.946,-8.423,-0.854,3.296
-0.016,-0.296,0.941,-8.057,-0.916,2.991
-0.017,-0.295,0.938,-7.446,-0.305,2.808
-0.013,-0.294,0.937,-6.592,0,2.991
-0.011,-0.292,0.936,-6.165,0,2.991
-0.013,-0.293,0.929,-6.042,0.122,2.747
-0.016,-0.293,0.917,-6.104,0.244,2.991
-0.014,-0.293,0.905,-6.042,0.183,2.869
-0.004,-0.288,0.917,-6.287,0.122,3.113
0.007,-0.291,0.937,-6.47,-0.366,3.113
0.005,-0.289,0.95,-7.202,-0.977,2.747
-0.005,-0.28,0.951,-7.874,-1.404,2.136
-0.012,-0.273,0.95,-7.996,-1.343,1.953
-0.017,-0.27,0.94,-7.629,-0.916,1.709
-0.016,-0.273,0.931,-6.836,-0.732,1.465
-0.01,-0.272,0.928,-6.226,-0.488,1.709
-0.01,-0.272,0.93,-5.676,-0.793,1.587
-0.015,-0.279,0.931,-5.493,-1.16,0.977
-0.016,-0.281,0.925,-5.432,-1.282,0.916
-0.013,-0.282,0.922,-5.371,-1.526,0.916
-0.008,-0.285,0.925,-6.104,-1.465,1.16
-0.007,-0.287,0.931,-7.507,-1.831,1.404
-0.012,-0.283,0.936,-8.301,-2.38,1.282
-0.013,-0.283,0.947,-8.972,-2.686,1.343
-0.016,-0.276,0.955,-9.521,-2.502,1.465
0.583,0.663,0.732,20.325,9.949,-76.172
0.594,0.641,0.69,22.339,10.925,-84.961
0.6,0.613,0.685,24.231,11.719,-92.59
0.601,0.571,0.676,22.156,12.756,-99.304
0.593,0.533,0.686,17.334,12.573,-107.117
0.603,0.517,0.696,9.521,12.634,-114.807
0.599,0.521,0.686,2.502,12.39,-122.253
0.594,0.502,0.665,-0.977,11.902,-129.517
0.587,0.479,0.646,-2.625,11.597,-136.047
0.586,0.441,0.626,-3.357,11.108,-141.968
0.591,0.381,0.616,-4.272,10.62,-148.071
0.599,0.352,0.617,-8.057,8.545,-153.87
0.586,0.337,0.623,-12.268,6.226,-158.02
0.594,0.302,0.625,-17.639,3.845,-163.208
0.586,0.281,0.616,-21.79,0.977,-168.03
0.579,0.274,0.6,-23.56,-2.136,-172.241
0.562,0.272,0.584,-24.902,-5.554,-175.964
0.542,0.251,0.57,-24.658,-7.996,-179.504
0.54,0.215,0.563,-23.01,-9.888,-183.167
0.533,0.177,0.554,-21.423,-12.024,-186.768
0.517,0.142,0.562,-19.287,-14.404,-190.613
0.506,0.109,0.537,-15.869,-17.029,-195.068
0.467,0.061,0.517,-8.667,-20.325,-199.585
0.409,0.001,0.506,-0.122,-22.705,-202.759
0.381,-0.052,0.497,10.681,-23.499,-204.59
0.393,-0.116,0.5,23.01,-22.949,-205.994
0.408,-0.189,0.515,35.034,-23.193,-207.336
0.395,-0.272,0.537,45.41,-25.085,-208.191
0.368,-0.356,0.568,52.246,-27.405,-208.435
0.348,-0.447,0.597,53.345,-29.724,-208.923
0.316,-0.513,0.639,47.913,-31.738,-208.923
0.272,-0.582,0.662,39.063,-33.447,-208.374
0.224,-0.691,0.669,33.997,-33.752,-206.177
0.199,-0.784,0.667,30.823,-32.837,-201.965
0.199,-0.805,0.667,23.132,-31.738,-196.289
0.217,-0.813,0.666,13.245,-31.189,-191.528
0.224,-0.819,0.673,4.944,-31.494,-186.829
0.227,-0.812,0.686,-5.615,-32.166,-182.19
0.22,-0.771,0.691,-14.709,-32.959,-178.406
0.208,-0.755,0.691,-16.968,-34.424,-174.988
0.158,-0.778,0.653,-10.742,-36.133,-170.471
0.1,-0.792,0.636,-2.136,-37.537,-164.429
0.052,-0.789,0.656,3.54,-38.208,-156.738
0.036,-0.806,0.69,8.545,-37.17,-148.132
0.051,-0.849,0.726,10.315,-34.607,-139.648
0.093,-0.901,0.735,5.127,-32.593,-131.348
0.146,-0.943,0.738,-6.897,-32.288,-124.268
0.164,-0.958,0.766,-19.287,-34.607,-118.164
0.171,-0.957,0.791,-28.748,-36.743,-112.671
0.181,-0.914,0.801,-32.227,-38.025,-107.727
0.175,-0.853,0.799,-31.738,-38.513,-101.807
0.159,-0.8,0.81,-29.48,-38.635,-95.764
0.153,-0.795,0.818,-26.978,-37.964,-89.661
0.147,-0.803,0.829,-25.818,-36.804,-84.595
0.14,-0.805,0.847,-26.306,-35.828,-79.956
0.139,-0.8,0.854,-27.832,-34.912,-75.989
0.148,-0.803,0.84,-29.907,-34.241,-72.754
0.159,-0.826,0.825,-32.837,-33.752,-69.519
0.171,-0.826,0.823,-37.17,-34.058,-66.284
0.179,-0.802,0.843,-41.443,-35.095,-63.477
0.15,-0.775,0.905,-46.082,-36.682,-60.852
0.112,-0.754,0.976,-50.049,-37.231,-59.021
0.063,-0.716,1.002,-50.476,-35.522,-57.007
0.048,-0.672,1,-47.913,-31.982,-54.199
0.06,-0.622,0.972,-43.64,-28.137,-50.232
0.061,-0.604,0.934,-39.063,-24.841,-46.326
0.054,-0.608,0.892,-35.095,-22.644,-43.335
0.052,-0.62,0.866,-31.921,-21.301,-40.71
0.045,-0.65,0.866,-29.114,-20.386,-38.391
0.04,-0.672,0.885,-27.466,-19.226,-35.217
0.031,-0.674,0.9,-26.123,-18.127,-31.25
0.031,-0.677,0.899,-25.085,-17.029,-27.649
0.042,-0.671,0.88,-25.574,-16.357,-24.597
0.049,-0.645,0.86,-28.015,-16.479,-21.667
0.052,-0.606,0.883,-31.372,-17.822,-18.982
0.039,-0.581,0.918,-32.959,-18.921,-16.907
0.018,-0.571,0.947,-33.691,-18.86,-15.625
0.003,-0.547,0.96,-33.752,-17.151,-13.428
-0.008,-0.526,0.943,-31.311,-14.221,-10.925
-0.005,-0.507,0.911,-26.855,-11.108,-8.911
0.013,-0.492,0.878,-21.24,-8.85,-7.08
0,-0.508,0.848,-16.541,-7.935,-5.92
-0.008,-0.529,0.829,-12.939,-6.897,-5.371
0.003,-0.533,0.826,-11.169,-6.348,-4.395
0.011,-0.526,0.839,-10.437,-6.042,-3.174
0.017,-0.518,0.863,-11.047,-6.165,-2.197
0.023,-0.517,0.873,-12.39,-6.531,-1.221
0.026,-0.504,0.868,-13.672,-7.019,0.061
0.027,-0.465,0.843,-13.184,-7.996,0.671
0.02,-0.45,0.832,-13.062,-9.46,0.549
0.013,-0.443,0.848,-13.916,-10.437,0.427
0.006,-0.442,0.863,-14.221,-10.559,0.549
0.004,-0.446,0.87,-15.259,-9.827,0.488
0.006,-0.44,0.854,-15.869,-8.789,0.854
0.001,-0.438,0.838,-14.771,-8.179,0.916
-0.001,-0.431,0.833,-12.939,-7.629,1.16
-0.003,-0.438,0.839,-9.827,-7.019,0.916
-0.002,-0.446,0.855,-7.263,-6.531,0.122
0,-0.451,0.877,-6.042,-5.737,-0.122
-0.003,-0.449,0.908,-4.211,-4.944,-0.427
-0.014,-0.446,0.923,-1.77,-3.723,-0.854
-0.018,-0.443,0.922,0.549,-2.686,-0.977
-0.013,-0.436,0.916,3.235,-1.709,-0.793
-0.008,-0.443,0.905,5.432,-0.977,-0.977
-0.007,-0.465,0.895,6.531,-0.671,-1.282
-0.006,-0.476,0.891,5.981,-0.671,-1.16
-0.005,-0.483,0.899,4.761,-0.916,-0.916
-0.004,-0.495,0.906,2.563,-1.465,-0.61
-0.005,-0.495,0.91,0.793,-1.709,-0.061
-0.008,-0.486,0.91,-0.671,-1.831,0.366
-0.009,-0.476,0.909,-1.953,-1.831,0.854
-0.007,-0.468,0.917,-2.441,-1.831,1.221
-0.007,-0.468,0.924,-2.869,-1.587,1.221
-0.009,-0.466,0.926,-2.991,-0.916,1.16
-0.004,-0.456,0.922,-2.991,-0.244,1.648
0,-0.449,0.912,-2.136,0.061,1.831
-0.004,-0.451,0.905,-1.16,0.427,1.587
-0.005,-0.453,0.898,-0.366,0.671,1.587
-0.007,-0.454,0.886,-0.061,0.854,1.526
0.005,-0.694,1.226,-2.991,-2.686,-28.564
0.034,-0.57,1.196,0.061,-1.465,-21.484
0.038,-0.531,1.167,6.348,0.244,-20.142
0.03,-0.534,1.139,14.832,1.953,-17.761
0.022,-0.526,1.116,25.33,2.686,-13.672
0.017,-0.526,1.083,34.119,3.54,-9.338
0.028,-0.542,1.05,37.17,4.211,-5.554
0.033,-0.587,1.021,33.936,4.272,-2.136
0.039,-0.61,0.994,25.696,3.723,1.953
0.045,-0.608,0.977,13.855,2.441,5.859
0.048,-0.593,0.955,-0.61,0.977,8.85
0.048,-0.552,0.944,-13.306,-0.793,10.986
0.048,-0.497,0.928,-24.292,-2.502,12.512
0.048,-0.446,0.916,-31.921,-3.906,12.817
0.041,-0.412,0.911,-35.339,-5.249,12.451
0.028,-0.385,0.912,-35.217,-6.042,11.963
0.013,-0.356,0.912,-33.325,-6.348,12.085
0.008,-0.333,0.916,-30.029,-5.92,12.329
0.005,-0.319,0.925,-26.001,-5.066,12.573
0.005,-0.312,0.932,-21.729,-3.906,12.512
0.007,-0.317,0.937,-17.517,-2.808,12.329
0.015,-0.318,0.932,-14.16,-1.953,12.024
0.02,-0.316,0.923,-10.986,-1.221,11.292
0.021,-0.315,0.907,-8.911,-0.732,10.132
0.023,-0.316,0.894,-7.69,-0.305,8.789
0.023,-0.315,0.887,-7.385,-0.061,7.812
0.026,-0.31,0.882,-7.629,0.244,7.141
0.03,-0.309,0.877,-7.751,0,6.226
0.029,-0.3,0.874,-7.629,-0.427,5.371
0.025,-0.281,0.877,-6.836,-1.221,4.578
0.02,-0.271,0.882,-4.517,-1.892,3.235
0.016,-0.279,0.883,-2.197,-2.38,1.709
0.012,-0.29,0.889,-0.549,-2.869,0.244
0.01,-0.309,0.896,0.244,-3.357,-0.977
0.009,-0.335,0.907,0.793,-3.723,-2.258
0.006,-0.351,0.918,0.793,-3.784,-2.686
0.001,-0.352,0.924,-0.183,-3.845,-2.686
-0.002,-0.352,0.931,-1.526,-3.54,-2.563
-0.002,-0.349,0.937,-2.625,-3.479,-2.38
-0.003,-0.35,0.939,-3.418,-3.235,-2.38
-0.008,-0.359,0.937,-4.517,-2.869,-2.136
-0.011,-0.356,0.943,-5.798,-2.502,-1.526
-0.009,-0.353,0.947,-6.897,-1.648,-0.977
-0.008,-0.352,0.944,-6.958,-1.099,-0.549
-0.005,-0.346,0.942,-6.348,-0.488,-0.061
-0.004,-0.341,0.943,-6.165,-0.122,0.61
-0.003,-0.336,0.937,-5.92,0.183,1.038
-0.003,-0.323,0.932,-4.395,0.183,1.282
-0.006,-0.325,0.928,-2.38,0.122,1.282
-0.007,-0.332,0.923,-1.526,0.122,1.343
-0.007,-0.333,0.92,-1.343,-0.244,1.404
-0.006,-0.329,0.919,-2.014,-0.427,1.465
-0.001,-0.324,0.924,-3.723,-0.916,1.892
0,-0.322,0.931,-5.737,-1.465,2.075
-0.002,-0.322,0.935,-7.69,-1.953,2.136
-0.005,-0.313,0.936,-9.033,-2.014,1.953
-0.011,-0.306,0.94,-9.216,-2.136,1.709
-0.014,-0.302,0.933,-8.545,-2.136,1.465
-0.01,-0.3,0.93,-7.629,-1.953,1.221
-0.004,-0.302,0.929,-7.141,-2.014,1.16
0,-0.307,0.927,-6.836,-2.258,0.916
-0.005,-0.315,0.923,-6.531,-2.38,0.488
-0.007,-0.316,0.921,-6.104,-2.502,0.427
-0.004,-0.313,0.92,-6.47,-2.502,0.366
-0.003,-0.314,0.917,-7.08,-2.747,0.366
-0.004,-0.32,0.914,-7.874,-3.052,0.366
-0.003,-0.319,0.911,-9.583,-3.357,0.732
0.004,-0.318,0.919,-11.597,-3.784,0.916
0.012,-0.326,0.931,-14.343,-4.15,1.16
0.013,-0.328,0.944,-17.883,-4.761,1.465
0.009,-0.308,0.957,-21.179,-5.188,1.587
0.003,-0.282,0.966,-22.4,-5.493,1.282
0,-0.274,0.97,-21.79,-5.249,0.61
0.002,-0.274,0.965,-20.203,-4.517,0.427
0.006,-0.262,0.963,-18.494,-3.967,0.122
0.007,-0.259,0.96,-17.029,-3.54,-0.305
0.013,-0.259,0.962,-15.015,-3.296,-0.671
0.015,-0.265,0.962,-12.878,-3.418,-1.16
0.01,-0.272,0.963,-11.414,-3.357,-1.587
0.008,-0.275,0.98,-10.071,-3.235,-1.709
0.003,-0.282,0.998,-7.751,-3.052,-1.892
-0.002,-0.287,1.005,-5.127,-2.747,-2.136
-0.004,-0.287,1.009,-2.93,-1.892,-1.953
-0.003,-0.287,1.006,-1.038,-0.854,-1.587
-0.006,-0.296,1.002,0.488,-0.366,-1.343
-0.007,-0.31,0.994,1.038,0.183,-1.099
-0.004,-0.314,0.99,1.16,0.671,-0.732
-0.002,-0.312,0.986,0.671,0.854,-0.427
0,-0.303,0.978,-0.61,0.977,0.061
0,-0.298,0.969,-2.014,0.916,0.427
0,-0.301,0.96,-3.479,0.671,0.854
-0.003,-0.303,0.957,-5.127,0.305,1.465
-0.009,-0.296,0.961,-6.165,0,2.319
-0.013,-0.284,0.962,-6.714,0.244,2.747
-0.014,-0.275,0.96,-7.141,0.305,3.296
-0.009,-0.272,0.958,-7.263,0.488,3.967
-0.01,-0.274,0.951,-7.263,0.488,4.639
-0.013,-0.274,0.95,-7.69,0.122,4.761
-0.017,-0.27,0.948,-7.996,-0.122,4.944
-0.018,-0.265,0.948,-8.179,-0.061,4.944
-0.017,-0.257,0.95,-8.423,-0.061,5.066
-0.01,-0.242,0.953,-8.606,-0.122,5.127
-0.004,-0.231,0.951,-7.812,-0.183,4.639
-0.004,-0.229,0.952,-6.592,-0.122,4.333
-0.012,-0.234,0.947,-5.615,0.183,3.784
-0.015,-0.233,0.94,-4.517,0.183,3.723
-0.016,-0.229,0.936,-3.723,0.305,3.235
-0.012,-0.231,0.931,-3.113,0.244,2.563
-0.009,-0.239,0.935,-2.686,0.305,2.075
-0.008,-0.249,0.938,-2.808,0.183,1.831
-0.012,-0.248,0.939,-2.869,0,1.77
-0.008,-0.247,0.943,-3.357,-0.183,1.709
-0.004,-0.25,0.946,-4.089,0.061,1.77
-0.002,-0.256,0.944,-5.188,-0.061,1.648
-0.004,-0.26,0.947,-5.798,-0.366,1.404
-0.004,-0.259,0.954,-6.897,-0.61,1.526
-0.001,-0.255,0.962,-8.118,-0.854,1.526
0,-0.253,0.967,-9.155,-0.916,1.648
-0.003,-0.252,0.97,-9.277,-1.16,1.77
-0.2,-0.882,0.944,-26.306,-31.189,-164.185
-0.194,-0.85,0.929,-31.799,-27.161,-155.151
-0.163,-0.803,0.874,-57.068,-22.583,-140.503
-0.068,-0.68,0.789,-49.5,-23.499,-133.118
-0.035,-0.638,0.797,-46.143,-26.062,-126.404
-0.024,-0.655,0.81,-34.607,-28.687,-119.324
-0.018,-0.682,0.825,-23.621,-29.175,-111.145
-0.015,-0.696,0.863,-18.555,-29.907,-102.295
-0.012,-0.717,0.909,-19.165,-31.86,-93.872
-0.021,-0.746,0.961,-25.635,-33.997,-86.67
-0.022,-0.746,1.007,-35.522,-36.133,-79.773
-0.019,-0.718,1.025,-44.739,-38.147,-73.364
-0.014,-0.681,1.015,-53.162,-39.307,-67.017
-0.018,-0.652,1.006,-60.791,-40.222,-60.974
-0.009,-0.609,1.005,-66.711,-40.833,-54.932
-0.001,-0.577,1.003,-71.045,-41.382,-49.316
0.004,-0.552,1.02,-73.181,-42.114,-44.128
0.029,-0.527,1.064,-72.021,-42.603,-39.551
-0.042,-0.484,1.108,-67.932,-43.03,-36.194
-0.1,-0.357,1.009,-59.509,-41.748,-32.593
-0.178,-0.137,1.184,-40.527,-39.917,-31.189
-0.19,-0.46,1.349,-29.846,-28.992,-30.029
-0.154,-0.762,1.371,-20.874,-15.747,-15.503
-0.123,-0.635,1.332,-11.658,-6.775,-1.099
-0.106,-0.531,1.258,-7.812,-0.305,4.883
-0.067,-0.476,1.178,-4.028,4.15,8.545
-0.011,-0.438,1.094,0.427,7.385,11.353
0.019,-0.414,1.025,4.211,8.362,12.207
0.031,-0.4,0.987,4.883,6.836,12.939
0.044,-0.386,0.97,1.648,4.639,14.526
0.057,-0.384,0.957,-4.333,2.197,16.235
0.067,-0.383,0.943,-13.123,-0.793,16.907
0.066,-0.361,0.946,-23.743,-3.601,16.785
0.062,-0.355,0.938,-33.508,-5.92,15.808
0.056,-0.316,0.93,-38.147,-7.874,14.587
0.046,-0.258,0.92,-38.757,-8.911,12.817
0.031,-0.227,0.917,-36.865,-9.216,10.315
0.018,-0.217,0.915,-32.654,-9.216,8.118
0.005,-0.212,0.926,-25.696,-9.094,6.47
-0.005,-0.212,0.943,-19.409,-8.545,5.31
-0.013,-0.22,0.958,-13.672,-7.568,4.089
-0.018,-0.241,0.963,-8.728,-6.226,3.113
-0.019,-0.258,0.966,-4.639,-4.7,2.441
-0.023,-0.268,0.973,-2.014,-3.296,2.136
-0.022,-0.278,0.966,-0.305,-1.77,2.014
-0.017,-0.281,0.948,0.549,-0.305,2.136
-0.012,-0.281,0.926,0.183,0.61,2.502
-0.006,-0.264,0.905,-0.305,0.916,2.93
-0.001,-0.251,0.89,-0.305,0.793,2.93
0.002,-0.253,0.878,-1.038,0.244,2.869
0.003,-0.258,0.874,-1.709,-0.549,2.686
-0.002,-0.266,0.881,-2.258,-1.404,1.953
-0.008,-0.267,0.885,-2.319,-2.197,1.648
-0.014,-0.266,0.891,-2.625,-2.747,1.404
-0.019,-0.269,0.898,-3.235,-3.174,1.404
-0.022,-0.273,0.918,-4.639,-3.418,1.465
-0.025,-0.267,0.943,-6.226,-3.601,1.343
-0.027,-0.271,0.959,-6.226,-3.723,0.854
-0.031,-0.274,0.97,-5.676,-3.662,0.549
-0.036,-0.269,0.971,-5.127,-3.174,0.549
-0.04,-0.261,0.958,-4.089,-2.686,0.549
-0.039,-0.266,0.947,-2.991,-2.014,0.61
-0.034,-0.275,0.953,-2.563,-1.16,0.732
-0.032,-0.278,0.965,-2.38,-0.916,1.343
-0.037,-0.269,0.972,-3.174,-0.671,1.648
-0.046,-0.252,0.972,-3.906,-0.183,1.404
-0.047,-0.241,0.955,-3.662,0.488,0.793
-0.045,-0.248,0.934,-3.113,0.977,0.305
-0.032,-0.27,0.934,-4.028,1.099,0.427
-0.012,-0.284,0.948,-6.104,0.977,1.038
-0.002,-0.276,0.96,-7.935,0.061,0.977
-0.009,-0.258,0.962,-9.949,-1.587,0.366
-0.017,-0.246,0.959,-11.169,-2.502,-0.671
-0.014,-0.238,0.973,-10.498,-3.235,-1.16
-0.012,-0.252,0.99,-8.728,-3.174,-1.282
-0.016,-0.263,0.995,-8.118,-3.357,-0.977
-0.026,-0.262,0.993,-7.996,-3.418,-0.732
-0.03,-0.258,0.99,-8.118,-3.235,-0.305
-0.027,-0.258,0.996,-8.362,-2.991,0.305
-0.023,-0.259,0.998,-9.216,-2.686,0.977
-0.023,-0.265,0.99,-9.705,-2.625,1.16
-0.028,-0.272,0.984,-10.681,-2.441,1.465
-0.025,-0.267,0.984,-11.719,-2.319,2.136
-0.024,-0.259,0.991,-10.193,-2.38,2.319
-0.03,-0.255,1,-8.179,-2.197,2.38
-0.036,-0.249,1,-6.592,-1.465,2.502
-0.038,-0.236,0.992,-4.578,-0.671,2.808
-0.034,-0.228,0.981,-2.563,0.061,2.747
-0.031,-0.228,0.974,-0.488,0.488,2.808
-0.026,-0.242,0.965,0.916,0.732,2.991
-0.023,-0.251,0.958,1.465,0.854,3.174
-0.024,-0.253,0.945,1.16,0.549,3.357
-0.024,-0.257,0.938,0.061,0.305,3.601
-0.021,-0.262,0.935,-1.831,-0.122,4.089
-0.021,-0.266,0.934,-4.639,-0.854,4.333
-0.025,-0.264,0.931,-8.179,-1.892,4.395
-0.032,-0.257,0.923,-11.475,-2.625,4.272
-0.03,-0.254,0.927,-14.771,-2.991,4.761
-0.02,-0.254,0.949,-18.555,-3.235,5.615
-0.017,-0.242,0.972,-20.508,-3.662,6.409
-0.023,-0.231,0.985,-21.301,-3.906,6.287
-0.032,-0.215,0.983,-20.996,-3.723,5.859
-0.036,-0.207,0.973,-19.47,-2.869,5.615
-0.035,-0.211,0.963,-17.7,-1.831,5.676
-0.024,-0.208,0.961,-16.541,-1.221,5.859
-0.017,-0.202,0.963,-15.686,-1.16,5.981
-0.02,-0.2,0.964,-14.771,-1.404,5.676
-0.026,-0.198,0.956,-14.465,-1.526,5.188
-0.025,-0.193,0.95,-14.404,-1.465,4.883
-0.018,-0.181,0.95,-13.489,-1.709,4.7
-0.012,-0.179,0.958,-12.512,-2.258,4.211
-0.018,-0.185,0.962,-12.39,-2.869,3.662
-0.026,-0.189,0.966,-12.634,-3.174,2.808
-0.031,-0.186,0.969,-13.428,-3.357,2.38
-0.028,-0.179,0.977,-13.977,-3.113,2.319
-0.027,-0.157,0.986,-13.733,-3.113,2.075
-0.029,-0.152,0.993,-10.437,-2.93,1.709
-0.036,-0.162,0.995,-6.958,-2.258,1.16
-0.041,-0.163,0.995,-3.845,-1.587,1.099
0.33,0.684,1.029,-69.336,49.683,-108.826
0.326,0.703,1.038,-77.271,52.124,-124.146
0.312,0.745,1.035,-82.031,54.81,-139.282
0.313,0.762,1,-84.778,56.702,-155.212
0.301,0.748,0.966,-83.435,57.983,-170.288
0.303,0.711,0.922,-80.75,58.411,-184.631
0.304,0.667,0.859,-77.881,58.411,-197.998
0.296,0.59,0.805,-74.524,56.824,-210.327
0.293,0.516,0.753,-73.364,54.565,-221.252
0.312,0.454,0.705,-73.73,51.636,-230.652
0.325,0.375,0.662,-75.562,47.791,-238.953
0.332,0.299,0.626,-77.332,42.908,-246.155
0.342,0.232,0.59,-78.613,37.231,-252.136
0.348,0.177,0.565,-78.857,31.128,-257.141
0.352,0.126,0.543,-73.059,24.841,-261.719
0.349,0.052,0.546,-66.162,17.7,-265.686
0.344,-0.009,0.574,-57.19,10.681,-268.433
0.311,-0.079,0.583,-40.405,5.31,-270.752
0.28,-0.18,0.587,-24.414,1.587,-273.01
0.257,-0.292,0.623,-7.324,-0.61,-273.01
0.249,-0.449,0.64,15.076,-1.16,-270.63
0.22,-0.647,0.632,33.752,-2.136,-266.785
0.228,-0.815,0.608,32.715,-3.357,-260.62
0.232,-0.892,0.553,15.198,-7.324,-255.249
0.2,-0.907,0.484,-7.019,-14.587,-251.831
0.144,-0.894,0.448,-34.851,-23.865,-247.375
0.128,-0.858,0.448,-59.326,-34.241,-241.028
0.081,-0.832,0.449,-67.444,-43.884,-234.253
0.048,-0.802,0.467,-74.951,-51.392,-224.548
0.027,-0.758,0.513,-80.994,-58.533,-214.6
-0.02,-0.782,0.595,-77.698,-64.575,-204.529
-0.06,-0.829,0.677,-71.594,-66.65,-191.101
-0.056,-0.872,0.749,-69.153,-66.65,-176.758
-0.047,-0.909,0.796,-67.444,-65.247,-163.94
-0.026,-0.915,0.818,-68.542,-63.171,-152.71
-0.016,-0.876,0.857,-67.871,-62.744,-144.104
-0.009,-0.831,0.872,-61.829,-61.89,-136.475
-0.003,-0.825,0.868,-57.495,-59.692,-128.906
0.018,-0.816,0.848,-57.983,-57.922,-120.361
0.022,-0.791,0.834,-58.472,-56.763,-111.023
0.05,-0.776,0.84,-56.274,-56.091,-101.501
0.044,-0.734,0.848,-54.81,-56.335,-91.736
0.023,-0.674,0.865,-56.213,-56.824,-82.336
0.012,-0.63,0.902,-57.312,-57.312,-73.853
0,-0.594,0.952,-56.519,-56.885,-66.223
-0.004,-0.569,0.982,-56.519,-55.298,-59.448
-0.001,-0.531,1.006,-57.129,-53.223,-53.406
0.009,-0.474,1.043,-57.373,-50.781,-47.974
0.026,-0.449,1.043,-55.42,-48.096,-43.64
0.04,-0.448,1.055,-50.476,-45.715,-40.466
0.042,-0.438,1.083,-42.603,-42.725,-36.926
0.028,-0.431,1.088,-34.119,-39.246,-33.264
0.014,-0.436,1.074,-28.198,-35.645,-29.419
0.014,-0.427,1.061,-24.719,-32.593,-24.963
0.032,-0.444,1.048,-24.78,-30.701,-21.423
0.016,-0.438,1.036,-29.663,-30.64,-18.677
0.03,-0.413,1.028,-33.691,-30.701,-15.869
0.029,-0.375,1.033,-36.011,-31.433,-14.16
0.033,-0.339,1.049,-38.574,-32.227,-13.123
0.024,-0.308,1.066,-40.588,-32.898,-12.817
0.028,-0.29,1.081,-41.443,-32.776,-12.024
0.029,-0.269,1.084,-38.513,-32.288,-11.902
-0.009,-0.249,1.077,-33.325,-31.433,-12.329
-0.029,-0.252,1.06,-27.222,-29.48,-11.597
-0.067,-0.176,1.026,-17.761,-27.588,-9.583
-0.099,-0.21,1.107,-10.437,-24.841,-8.667
-0.091,-0.363,1.229,-5.493,-19.531,-5.554
-0.076,-0.387,1.28,-2.563,-13.184,-0.916
-0.069,-0.342,1.268,-2.991,-8.179,0.977
-0.054,-0.32,1.226,-2.808,-3.54,1.282
-0.036,-0.298,1.169,-1.282,0.488,1.892
-0.021,-0.287,1.105,-0.977,3.723,2.136
-0.01,-0.283,1.043,-0.244,5.249,2.747
0,-0.282,0.994,-0.549,5.432,4.028
0.007,-0.273,0.949,-1.526,4.211,5.31
0.012,-0.276,0.916,-3.54,2.502,6.042
0.015,-0.315,0.895,-8.484,0.183,6.653
0.021,-0.323,0.881,-16.846,-2.441,7.812
0.02,-0.281,0.884,-24.658,-5.737,8.179
0.01,-0.251,0.906,-30.579,-8.728,7.324
0.003,-0.228,0.928,-34.302,-10.803,6.287
-0.004,-0.205,0.954,-33.63,-12.024,5.31
-0.015,-0.195,0.967,-30.151,-11.902,4.15
-0.025,-0.182,0.974,-25.513,-10.681,3.479
-0.032,-0.166,0.984,-18.555,-9.216,3.296
-0.031,-0.17,0.993,-11.658,-7.08,3.113
-0.028,-0.172,1.001,-6.165,-5.005,2.991
-0.032,-0.184,1.005,-1.587,-3.174,2.502
-0.033,-0.205,1.006,1.709,-1.221,1.831
-0.028,-0.217,0.999,4.395,0.427,1.221
-0.024,-0.217,0.978,6.348,1.587,0.671
-0.019,-0.219,0.955,7.507,2.502,0.244
-0.016,-0.23,0.931,7.935,2.747,0.183
-0.01,-0.243,0.914,7.324,2.502,0.305
-0.005,-0.256,0.904,5.493,1.892,0.427
-0.001,-0.261,0.911,2.93,0.916,1.099
0.001,-0.258,0.922,0.549,-0.244,1.709
-0.002,-0.257,0.932,-1.526,-1.343,2.075
-0.008,-0.259,0.944,-3.418,-2.014,2.258
-0.014,-0.257,0.966,-6.042,-2.319,2.869
-0.02,-0.251,0.982,-7.69,-2.441,3.479
-0.022,-0.251,0.989,-8.24,-2.075,3.723
-0.022,-0.253,0.992,-7.996,-1.709,4.272
-0.025,-0.256,0.994,-8.057,-0.916,4.761
-0.02,-0.255,0.998,-8.911,-0.305,5.066
-0.014,-0.236,1.008,-9.705,0.366,5.432
-0.015,-0.224,1.014,-7.812,0.793,5.432
-0.019,-0.22,1.012,-5.737,1.465,5.249
-0.023,-0.205,1.001,-3.723,2.563,5.31
-0.023,-0.196,0.981,-1.404,3.54,5.127
-0.021,-0.198,0.958,0.793,4.456,5.249
-0.007,-0.205,0.945,2.075,4.761,5.371
0.007,-0.215,0.949,1.709,4.456,5.676
0.016,-0.23,0.952,-0.427,3.54,5.737
0.015,-0.236,0.952,-3.479,2.319,5.432
0.007,-0.228,0.944,-6.592,1.221,5.188
-0.002,-0.227,0.94,-9.766,0.427,4.883
0,-0.225,0.945,-13.489,0,5.005
0.005,-0.216,0.95,-16.541,-0.671,5.066
-0.359,-0.596,1.147,-2.38,-55.237,-214.661
-0.351,-0.582,1.139,-9.277,-50.232,-208.862
-0.344,-0.511,1.115,-13.916,-45.166,-192.2
-0.346,-0.335,1.04,-12.39,-37.72,-184.509
-0.346,-0.285,1.007,-6.653,-34.851,-177.185
-0.328,-0.278,0.987,-0.854,-32.227,-170.654
-0.306,-0.316,1.002,2.808,-30.457,-163.94
-0.282,-0.377,1.054,6.592,-30.029,-156.555
-0.254,-0.443,1.085,9.521,-29.358,-146.973
-0.276,-0.456,1.12,10.559,-28.992,-136.963
-0.297,-0.45,1.125,13.977,-26.917,-128.052
-0.17,-0.448,1.126,14.526,-23.315,-118.347
-0.126,-0.437,1.122,4.15,-27.832,-104.431
-0.163,-0.427,1.1,-5.31,-29.907,-89.966
-0.125,-0.418,1.077,-11.78,-29.48,-81.116
-0.134,-0.374,1.067,-18.555,-29.297,-71.411
-0.071,-0.354,1.071,-23.01,-27.893,-63.293
-0.059,-0.326,1.083,-30.09,-29.114,-53.528
-0.069,-0.271,1.099,-37.17,-30.945,-44.434
-0.086,-0.23,1.116,-41.443,-30.334,-37.231
-0.069,-0.218,1.115,-43.579,-28.32,-31.921
-0.041,-0.203,1.111,-44.25,-26.123,-27.954
-0.032,-0.163,1.096,-45.837,-24.597,-23.804
-0.032,-0.005,1.082,-43.823,-23.499,-20.935
-0.034,-0.129,1.168,-39.856,-20.752,-20.386
-0.052,-0.275,1.206,-38.757,-16.541,-12.939
-0.019,-0.122,1.221,-35.095,-14.099,-5.92
-0.022,-0.1,1.228,-31.616,-12.207,-5.432
-0.009,-0.137,1.207,-25.818,-9.949,-3.845
0.006,-0.097,1.188,-19.531,-8.118,-1.526
0.002,-0.065,1.17,-14.16,-6.958,0.061
-0.002,-0.093,1.144,-10.864,-5.615,1.16
0.003,-0.11,1.136,-11.108,-3.906,3.662
0.015,-0.108,1.104,-14.954,-2.563,6.409
0.025,-0.086,1.076,-19.714,-1.709,8.362
0.035,-0.055,1.061,-23.682,-1.221,9.888
0.035,-0.038,1.038,-25.33,-1.038,10.925
0.03,-0.021,1.018,-24.17,-0.916,11.597
0.036,0.01,0.999,-23.071,-0.427,12.268
0.044,0.044,0.966,-21.362,-0.366,12.268
0.044,0.079,0.938,-18.372,-0.366,10.742
0.046,0.097,0.926,-14.221,-0.488,8.423
0.048,0.081,0.921,-10.864,-0.61,5.737
0.046,0.056,0.919,-9.644,-1.343,4.028
0.047,0.04,0.936,-9.399,-2.136,2.441
0.051,0.029,0.948,-10.559,-3.418,1.221
0.05,0.022,0.958,-11.902,-4.578,0.122
0.044,0.016,0.976,-13,-5.371,-0.427
0.034,0.013,0.979,-13.733,-5.188,-0.549
0.026,0.025,0.973,-13.672,-4.883,-0.122
0.019,0.041,0.967,-12.329,-4.333,0.366
0.006,0.052,0.953,-9.827,-3.418,0.549
0.002,0.066,0.941,-6.958,-2.136,0.427
0.007,0.069,0.929,-3.418,-0.854,0.305
0.013,0.065,0.928,0.793,-0.122,-0.183
0.022,0.053,0.945,4.089,0.305,-0.366
0.03,0.039,0.962,5.92,0.488,-0.427
0.031,0.036,0.964,6.714,0.488,-0.671
0.032,0.038,0.969,7.019,0.549,-1.526
0.028,0.037,0.975,6.592,0.244,-2.258
0.022,0.031,0.977,5.371,0.122,-3.113
0.018,0.025,0.981,3.784,-0.183,-3.54
0.017,0.025,0.985,2.258,-0.488,-3.662
0.016,0.027,0.988,0.732,-0.854,-3.723
0.015,0.033,0.991,-0.61,-1.343,-3.723
0.009,0.035,1,-0.854,-1.465,-3.723
0.007,0.027,1.01,-0.427,-1.038,-3.723
0.003,0.021,1.016,0.732,-0.366,-3.357
0.002,0.015,1.014,1.465,0.305,-2.747
0.001,0.008,1.012,1.526,0.488,-2.197
0.005,0.008,1.013,1.343,0.793,-1.221
0.007,0.016,1.017,1.282,1.16,-0.549
0.008,0.01,1.016,1.343,1.404,-0.122
0.008,0.013,1.008,1.038,1.465,0.427
0.013,0.027,0.995,0.977,1.953,0.671
0.015,0.033,0.985,1.465,2.136,0.549
0.016,0.028,0.982,1.831,1.953,0.549
0.023,0.022,0.983,1.221,1.526,0.854
0.028,0.01,0.986,-0.916,1.038,1.038
0.027,0.007,0.98,-3.113,0.244,1.526
0.025,0.019,0.97,-5.981,-0.366,2.38
0.022,0.036,0.97,-8.545,-0.793,2.869
0.018,0.053,0.973,-9.583,-0.854,3.235
0.01,0.063,0.973,-7.996,-0.793,3.235
0.009,0.065,0.969,-6.47,-0.427,3.113
0.013,0.067,0.966,-5.859,0,3.113
0.016,0.069,0.97,-5.249,0.061,2.93
0.016,0.069,0.973,-4.456,-0.122,2.319
0.015,0.069,0.969,-2.686,-0.061,1.465
0.016,0.059,0.966,-0.732,0.061,1.099
0.019,0.053,0.971,0.305,0.122,0.854
0.02,0.047,0.976,0.427,0.183,0.793
0.02,0.049,0.976,-0.183,0.122,0.61
0.018,0.047,0.978,0.549,-0.305,0.183
0.017,0.038,0.977,0.488,-0.305,0.122
0.015,0.038,0.975,0.366,-0.183,0.122
0.012,0.041,0.978,0.671,-0.244,0.366
0.01,0.038,0.981,1.16,-0.122,0.427
0.006,0.031,0.974,1.587,0.183,0.488
0.006,0.024,0.974,1.892,0.305,0.732
0.007,0.018,0.978,1.526,0.366,1.099
0.004,0.02,0.984,1.282,0.427,1.648
0.006,0.022,0.986,1.16,0.671,2.38
0.011,0.019,0.988,1.282,0.916,2.93
0.016,0.032,0.986,1.221,0.793,3.662
0.019,0.041,0.981,1.099,0.854,3.723
0.021,0.046,0.978,1.16,0.854,3.479
0.026,0.046,0.987,1.221,0.732,3.174
0.025,0.037,0.99,0.427,0.549,2.93
0.018,0.042,0.995,-0.366,0.061,2.38
0.013,0.042,0.999,-0.916,-0.549,1.953
0.01,0.042,0.997,-1.16,-0.488,1.465
0.009,0.039,0.99,-1.099,-0.244,1.221
0.012,0.041,0.994,-0.671,0.061,1.404
0.018,0.041,0.999,-0.244,0.183,1.648
0.023,0.04,1,0.061,0.549,2.197
0.027,0.04,0.998,0.366,0.793,2.319
0.03,0.036,0.99,0.305,0.916,2.258
0.028,0.036,0.984,0.61,0.854,2.258
0.557,0.661,0.816,-10.498,-4.761,-64.392
0.586,0.657,0.827,-18.616,-5.432,-70.435
0.596,0.67,0.821,-27.344,-6.714,-77.332
0.606,0.697,0.801,-35.767,-8.179,-83.679
0.603,0.755,0.793,-42.175,-9.766,-90.271
0.599,0.794,0.779,-45.715,-11.108,-97.9
0.584,0.795,0.752,-46.57,-12.451,-106.75
0.596,0.797,0.714,-45.898,-13.245,-115.479
0.599,0.809,0.682,-43.335,-14.771,-123.596
0.605,0.789,0.657,-40.161,-16.968,-131.592
0.597,0.74,0.638,-37.17,-20.081,-139.221
0.585,0.684,0.634,-34.363,-23.621,-146.79
0.574,0.635,0.628,-32.166,-27.1,-153.137
0.576,0.597,0.627,-30.823,-29.968,-159.241
0.577,0.569,0.617,-31.006,-32.959,-164.49
0.566,0.531,0.594,-32.288,-36.926,-169.983
0.543,0.48,0.568,-34.546,-41.382,-175.842
0.531,0.444,0.553,-36.438,-46.326,-180.664
0.509,0.418,0.538,-37.598,-51.697,-184.937
0.486,0.36,0.539,-39.368,-56.519,-189.148
0.485,0.294,0.549,-42.664,-61.584,-192.932
0.456,0.241,0.565,-46.997,-67.932,-195.435
0.412,0.195,0.59,-51.27,-73.669,-197.449
0.381,0.162,0.619,-56.335,-78.247,-198.73
0.361,0.139,0.634,-61.218,-81.97,-200.195
0.335,0.121,0.644,-65.247,-86.609,-202.393
0.296,0.109,0.647,-67.688,-91.125,-204.895
0.258,0.094,0.645,-69.397,-95.52,-207.642
0.208,0.073,0.634,-70.618,-99.426,-210.083
0.182,0.027,0.643,-72.876,-102.356,-212.524
0.115,-0.023,0.653,-73.608,-105.957,-214.783
0.063,-0.082,0.658,-72.144,-108.826,-215.637
0.042,-0.114,0.648,-68.726,-110.84,-214.417
0.055,-0.127,0.669,-64.392,-113.037,-212.219
0.045,-0.125,0.714,-57.922,-117.188,-210.205
0,-0.141,0.772,-47.485,-121.338,-208.923
-0.036,-0.189,0.849,-34.363,-122.925,-206.665
-0.091,-0.276,0.915,-22.522,-122.742,-204.468
-0.145,-0.361,0.955,-15.625,-120.422,-201.66
-0.178,-0.436,0.962,-17.883,-116.089,-196.899
-0.162,-0.458,0.97,-27.527,-111.511,-190.491
-0.144,-0.419,0.987,-40.222,-108.337,-183.044
-0.128,-0.361,0.976,-54.077,-106.812,-175.415
-0.125,-0.271,0.988,-62.378,-106.262,-169.25
-0.17,-0.206,0.985,-63.11,-104.858,-165.283
-0.203,-0.197,0.977,-59.814,-101.685,-162.109
-0.229,-0.19,0.974,-54.565,-97.595,-158.813
-0.247,-0.207,0.996,-46.509,-93.018,-153.625
-0.249,-0.229,1.036,-37.842,-87.83,-147.888
-0.253,-0.252,1.082,-28.625,-82.458,-142.029
-0.248,-0.289,1.1,-18.921,-76.172,-136.23
-0.24,-0.301,1.096,-12.085,-70.862,-130.066
-0.221,-0.298,1.083,-7.263,-66.04,-122.07
-0.203,-0.292,1.081,-4.517,-61.523,-113.464
-0.187,-0.304,1.095,-4.028,-58.105,-105.286
-0.165,-0.322,1.115,-5.249,-54.199,-96.191
-0.153,-0.347,1.166,-9.094,-49.744,-85.693
-0.154,0.129,1.106,-7.874,-45.654,-76.965
-0.216,-0.576,1.353,-4.639,-36.804,-74.646
-0.176,-0.754,1.329,-3.113,-22.522,-41.687
-0.038,-0.598,1.381,-8.301,-18.433,-24.841
-0.007,-0.411,1.342,-18.372,-13.489,-16.235
-0.022,-0.34,1.294,-9.033,-10.254,-8.85
-0.017,-0.307,1.258,-1.16,-6.47,-3.601
-0.008,-0.291,1.199,1.77,-3.174,2.441
-0.013,-0.332,1.172,0.61,-0.671,8.667
-0.003,-0.319,1.16,-4.456,0.305,14.343
0.021,-0.245,1.159,-12.085,-0.122,17.7
0.042,-0.176,1.127,-19.47,-0.977,17.639
0.048,-0.141,1.1,-24.475,-2.136,15.625
0.045,-0.127,1.088,-28.687,-3.357,13.977
0.047,-0.075,1.084,-32.227,-3.967,13.55
0.054,-0.003,1.087,-33.936,-4.089,13.611
0.053,0.051,1.077,-31.799,-3.418,12.329
0.055,0.083,1.053,-26.672,-1.465,10.193
0.063,0.111,1.028,-20.508,0.183,8.301
0.065,0.119,1.018,-12.146,1.221,5.31
0.062,0.089,1.003,-4.395,2.197,2.075
0.062,0.08,1.001,1.16,2.747,-0.488
0.068,0.051,0.997,4.333,2.625,-2.502
0.073,0.027,0.986,5.249,2.441,-4.211
0.069,0.005,0.982,4.15,2.075,-5.615
0.066,-0.015,0.979,1.953,1.526,-6.226
0.068,-0.029,0.969,-1.282,1.282,-6.226
0.072,-0.049,0.944,-4.272,0.977,-5.798
0.075,-0.043,0.928,-7.202,0.366,-4.883
0.074,-0.021,0.931,-9.277,-1.038,-4.028
0.072,-0.026,0.923,-10.132,-2.319,-3.601
0.066,-0.035,0.923,-11.414,-3.418,-3.296
0.063,-0.044,0.93,-12.512,-4.333,-3.052
0.058,-0.039,0.943,-13.855,-5.371,-2.319
0.051,-0.04,0.953,-15.076,-6.226,-1.587
0.044,-0.057,0.97,-15.747,-6.531,-0.732
0.042,-0.043,0.988,-16.052,-6.531,0.854
0.037,-0.028,1,-15.198,-6.226,1.831
0.031,-0.032,1,-13.55,-5.127,2.258
0.03,-0.024,1,-12.024,-3.906,3.235
0.032,-0.011,1.006,-10.62,-3.174,3.845
0.038,-0.003,1.009,-9.399,-2.319,3.906
0.042,0.006,1.009,-8.179,-1.831,3.601
0.05,0.009,1.001,-6.958,-1.221,3.113
0.048,0.009,0.993,-5.432,-0.671,2.808
0.044,0.018,0.985,-3.052,0,2.563
0.045,0.019,0.988,-0.916,0.366,2.075
0.046,0.017,0.991,0.671,0.977,1.526
0.044,0.02,0.988,1.648,1.587,1.16
0.047,0.018,0.989,2.502,1.587,0.671
0.049,0.012,0.986,2.869,1.709,0.122
0.048,0.006,0.985,2.747,1.709,-0.549
0.047,0.001,0.979,2.319,1.465,-1.099
0.044,0,0.973,1.953,1.404,-1.16
0.051,0.002,0.972,1.282,0.977,-0.793
0.057,-0.005,0.973,-0.122,0.549,-0.671
0.054,-0.003,0.976,-1.343,0.183,-0.549
0.046,-0.005,0.98,-1.953,-0.183,-0.488
0.042,-0.004,0.972,-2.441,-0.061,-0.122
0.047,0.006,0.968,-2.075,0.244,0.549
0.051,0.004,0.96,-1.221,0.427,0.671
0.05,0.002,0.955,-0.183,0.427,0.732
-0.004,-0.806,1.217,2.075,-2.686,-34.668
0.043,-0.672,1.186,1.221,-0.549,-28.625
0.061,-0.593,1.157,12.451,1.465,-25.146
0.042,-0.635,1.14,28.137,3.601,-21.729
0.033,-0.645,1.125,39.49,5.981,-15.747
0.038,-0.612,1.114,46.021,8.24,-7.751
0.042,-0.63,1.104,48.34,10.071,-1.221
0.045,-0.655,1.093,45.776,10.742,4.761
0.043,-0.671,1.067,39.368,10.986,9.888
0.048,-0.688,1.029,29.724,10.62,13.733
0.055,-0.664,0.996,16.724,10.132,16.602
0.062,-0.611,0.966,4.944,9.399,18.127
0.066,-0.557,0.923,-3.357,7.874,18.616
0.072,-0.516,0.884,-9.888,5.92,18.86
0.076,-0.472,0.859,-13.55,3.296,18.982
0.063,-0.437,0.855,-14.709,0.488,18.616
0.05,-0.436,0.849,-17.212,-1.709,18.127
0.048,-0.428,0.856,-21.729,-3.418,18.005
0.046,-0.416,0.874,-26.245,-4.456,17.7
0.037,-0.41,0.883,-30.151,-5.005,17.029
0.029,-0.386,0.885,-33.081,-5.005,16.602
0.026,-0.35,0.878,-33.508,-4.7,15.93
0.026,-0.331,0.867,-31.677,-4.333,14.648
0.033,-0.33,0.855,-29.846,-4.15,13.062
0.046,-0.317,0.846,-28.503,-4.578,11.597
0.05,-0.303,0.847,-26.062,-5.493,9.888
0.049,-0.305,0.849,-23.682,-6.165,8.179
0.047,-0.303,0.852,-21.545,-6.409,6.714
0.04,-0.298,0.863,-19.653,-6.226,6.042
0.033,-0.299,0.877,-18.86,-5.737,5.493
0.028,-0.297,0.882,-18.311,-5.188,4.883
0.022,-0.293,0.885,-17.517,-4.456,4.028
0.022,-0.286,0.891,-16.174,-3.906,2.991
0.025,-0.286,0.892,-13,-3.418,1.16
0.025,-0.296,0.888,-8.423,-3.052,-0.854
0.027,-0.307,0.881,-4.761,-2.686,-2.563
0.03,-0.322,0.88,-2.075,-2.258,-3.845
0.033,-0.334,0.885,-0.183,-2.075,-4.761
0.033,-0.332,0.889,0.427,-2.075,-5.493
0.034,-0.335,0.891,0.183,-2.258,-6.042
0.03,-0.344,0.899,-0.183,-2.686,-6.531
0.027,-0.35,0.907,-0.427,-2.747,-6.897
0.026,-0.358,0.918,-0.244,-2.93,-7.141
0.025,-0.362,0.929,-0.305,-2.808,-7.202
0.022,-0.361,0.943,0.427,-2.808,-7.141
0.024,-0.366,0.954,0.916,-2.38,-7.202
0.027,-0.378,0.955,1.465,-1.953,-7.263
0.026,-0.383,0.951,2.441,-1.587,-7.202
0.02,-0.382,0.951,3.662,-1.038,-7.263
0.016,-0.383,0.948,4.944,-0.732,-7.08
0.017,-0.385,0.94,5.493,-0.305,-6.958
0.024,-0.392,0.936,5.371,-0.305,-6.409
0.026,-0.401,0.938,5.066,-0.366,-5.615
0.024,-0.413,0.948,4.15,-0.427,-4.822
0.021,-0.42,0.959,2.869,-0.549,-3.723
0.019,-0.419,0.962,1.831,-0.549,-2.686
0.018,-0.41,0.964,1.038,-0.488,-1.587
0.024,-0.407,0.968,0.183,-0.549,-0.488
0.029,-0.413,0.963,-1.221,-0.488,0.183
0.029,-0.417,0.956,-3.113,-0.671,0.916
0.032,-0.413,0.954,-5.676,-0.732,2.075
0.031,-0.394,0.953,-8.057,-0.61,3.052
0.03,-0.379,0.947,-10.437,-0.793,3.54
0.031,-0.36,0.943,-11.047,-1.038,3.845
0.034,-0.354,0.943,-10.498,-1.221,3.662
0.033,-0.356,0.944,-10.437,-1.465,3.296
0.031,-0.348,0.944,-9.888,-1.587,3.296
0.029,-0.346,0.937,-8.911,-1.526,2.991
0.028,-0.341,0.932,-8.179,-1.587,2.502
0.022,-0.336,0.927,-7.812,-1.77,1.953
0.019,-0.331,0.93,-7.935,-1.648,1.404
0.019,-0.332,0.927,-8.118,-1.404,0.854
0.023,-0.331,0.923,-7.996,-1.099,0.549
0.026,-0.329,0.916,-7.507,-0.977,0.366
0.027,-0.325,0.916,-6.47,-1.099,-0.122
0.029,-0.328,0.919,-4.883,-1.221,-0.61
0.028,-0.338,0.919,-4.15,-1.404,-1.038
0.024,-0.341,0.919,-3.967,-1.343,-1.099
0.021,-0.345,0.927,-4.15,-1.282,-0.854
0.021,-0.343,0.936,-4.822,-0.977,-0.61
0.019,-0.34,0.943,-5.066,-0.732,-0.427
0.019,-0.336,0.939,-4.883,-0.488,-0.244
0.019,-0.333,0.933,-3.845,-0.061,-0.183
0.02,-0.332,0.925,-2.991,0.122,-0.366
0.022,-0.336,0.92,-2.563,0.244,-0.427
0.02,-0.34,0.917,-2.014,0.061,-0.427
0.018,-0.34,0.916,-1.282,-0.183,-0.488
0.019,-0.344,0.915,-1.404,-0.366,-0.366
0.02,-0.347,0.911,-1.77,-0.549,0.122
0.016,-0.346,0.912,-2.563,-0.854,0.244
0.014,-0.349,0.916,-3.662,-1.221,0.488
0.014,-0.355,0.918,-5.127,-1.343,0.854
0.015,-0.353,0.922,-7.08,-1.77,1.587
0.013,-0.342,0.932,-8.606,-1.77,2.014
0.013,-0.324,0.937,-8.301,-1.831,2.075
0.013,-0.322,0.943,-7.019,-1.953,1.831
0.018,-0.324,0.944,-6.104,-1.831,1.953
0.019,-0.328,0.943,-5.554,-1.648,2.075
0.017,-0.328,0.943,-5.432,-1.648,2.075
0.014,-0.32,0.952,-5.798,-1.709,2.258
0.011,-0.308,0.96,-5.005,-1.465,2.38
0.011,-0.311,0.964,-4.089,-1.038,2.197
0.016,-0.31,0.965,-3.296,-0.488,2.136
0.021,-0.311,0.962,-2.502,-0.122,2.014
0.021,-0.315,0.959,-2.075,0.183,1.587
0.019,-0.314,0.956,-1.404,0.183,1.282
0.016,-0.31,0.949,-0.549,0.183,1.221
0.016,-0.321,0.944,-0.183,0.183,1.16
0.019,-0.328,0.94,-0.244,0.183,1.282
0.022,-0.328,0.943,-0.732,-0.122,1.404
0.021,-0.328,0.945,-1.343,-0.427,1.343
0.022,-0.334,0.947,-2.014,-0.61,1.221
0.024,-0.332,0.949,-2.563,-0.854,1.16
0.022,-0.325,0.952,-2.441,-1.099,1.16
0.02,-0.328,0.949,-1.648,-1.16,0.793
0.018,-0.332,0.949,-1.526,-1.16,0.671
0.019,-0.333,0.947,-1.648,-0.732,0.854
0.02,-0.327,0.952,-1.892,-0.427,1.282
0.02,-0.319,0.955,-1.648,-0.122,1.221
0.626,0.616,0.802,-13.672,23.682,-29.419
0.631,0.627,0.789,-12.207,24.17,-33.813
0.638,0.62,0.778,-13.977,24.353,-38.757
0.647,0.619,0.77,-17.761,22.888,-59.814
0.646,0.604,0.767,-32.837,16.968,-57.617
0.637,0.619,0.738,-41.748,15.259,-64.392
0.654,0.696,0.734,-49.255,11.658,-70.435
0.674,0.706,0.671,-55.664,-5.676,-69.153
0.65,0.738,0.639,-60.608,-15.076,-74.646
0.633,0.784,0.617,-62.988,-20.386,-81.543
0.593,0.808,0.601,-60.791,-25.574,-89.233
0.559,0.821,0.585,-53.955,-29.053,-97.29
0.564,0.82,0.574,-45.105,-31.311,-106.567
0.533,0.773,0.561,-37.109,-34.546,-115.295
0.504,0.709,0.552,-32.288,-37.292,-123.169
0.489,0.651,0.544,-30.334,-40.1,-129.761
0.482,0.593,0.54,-30.029,-43.396,-135.315
0.469,0.549,0.53,-30.884,-47.607,-140.625
0.453,0.517,0.528,-32.104,-52.246,-145.813
0.446,0.506,0.521,-32.593,-57.007,-150.94
0.422,0.503,0.523,-31.677,-62.073,-156.677
0.401,0.489,0.532,-29.968,-66.528,-162.415
0.393,0.453,0.55,-27.893,-70.007,-167.725
0.384,0.394,0.577,-26.978,-74.097,-172.729
0.359,0.339,0.595,-28.137,-78.369,-177.185
0.346,0.278,0.607,-30.09,-82.275,-180.847
0.331,0.225,0.602,-32.959,-86.182,-183.716
0.32,0.188,0.596,-35.095,-90.149,-186.401
0.29,0.168,0.609,-38.513,-93.994,-188.782
0.26,0.149,0.622,-41.931,-97.29,-191.04
0.235,0.118,0.634,-45.166,-100.403,-193.237
0.222,0.095,0.654,-49.622,-103.027,-195.312
0.205,0.095,0.692,-53.223,-106.506,-197.571
0.151,0.097,0.74,-51.575,-110.535,-200.562
0.094,0.095,0.778,-46.204,-112.854,-203.979
0.071,0.091,0.816,-39.185,-112.793,-207.336
0.067,0.071,0.837,-32.043,-111.694,-210.449
0.038,0.03,0.845,-25.208,-110.657,-213.501
-0.006,-0.03,0.845,-20.264,-109.497,-215.393
-0.05,-0.081,0.85,-15.625,-108.459,-215.21
-0.088,-0.138,0.88,-10.315,-107.117,-213.806
-0.115,-0.219,0.937,-7.019,-106.262,-211.548
-0.149,-0.298,0.986,-6.042,-105.164,-208.496
-0.167,-0.349,1.032,-8.484,-103.149,-204.712
-0.172,-0.388,1.063,-13.855,-101.013,-200.745
-0.203,-0.401,1.111,-16.479,-99.365,-197.815
-0.216,-0.386,1.134,-17.639,-95.154,-194.458
-0.222,-0.353,1.135,-16.663,-89.478,-189.514
-0.219,-0.333,1.116,-12.878,-83.923,-183.228
-0.223,-0.314,1.091,-10.193,-78.247,-176.208
-0.223,-0.321,1.075,-8.728,-72.937,-169.922
-0.216,-0.311,1.055,-9.583,-68.298,-163.452
-0.211,-0.314,1.04,-9.033,-64.697,-158.02
-0.211,-0.345,1.039,-5.493,-61.462,-152.954
-0.217,-0.367,1.046,-1.282,-58.533,-145.569
-0.207,-0.385,1.075,2.014,-55.298,-136.23
-0.172,-0.408,1.104,3.845,-51.331,-127.197
-0.155,-0.436,1.13,3.479,-47.241,-118.103
-0.135,-0.461,1.132,-0.183,-43.884,-108.521
-0.1,-0.447,1.119,-5.92,-41.321,-98.816
-0.09,-0.429,1.092,-11.658,-39.246,-90.027
-0.08,-0.402,1.077,-17.639,-37.415,-81.848
-0.063,-0.365,1.066,-21.423,-35.767,-74.036
-0.061,-0.349,1.063,-21.79,-33.875,-66.956
-0.048,-0.333,1.047,-21.912,-31.86,-60.486
-0.042,-0.178,1.074,-18.433,-30.701,-54.993
-0.037,-0.376,1.138,-15.686,-27.039,-51.819
-0.034,-0.482,1.158,-16.174,-21.118,-40.1
0.001,-0.453,1.173,-15.442,-17.151,-29.297
0.009,-0.435,1.186,-18.005,-13.55,-22.278
0.027,-0.382,1.17,-16.968,-10.437,-14.587
0.041,-0.347,1.136,-15.198,-7.812,-9.399
0.045,-0.303,1.1,-14.526,-5.981,-4.761
0.053,-0.268,1.078,-14.465,-4.456,-0.122
0.057,-0.249,1.065,-14.832,-3.906,3.845
0.059,-0.224,1.059,-16.907,-3.479,7.019
0.057,-0.202,1.054,-19.409,-3.235,9.155
0.048,-0.187,1.048,-21.423,-2.808,10.62
0.046,-0.156,1.033,-23.56,-2.014,12.451
0.05,-0.106,1.011,-23.926,-1.16,13.855
0.055,-0.082,0.993,-22.766,-0.427,14.038
0.055,-0.066,0.975,-20.813,0.366,13.611
0.055,-0.028,0.958,-18.555,0.854,13.367
0.052,0,0.958,-14.465,0.854,12.329
0.055,-0.002,0.961,-9.949,1.16,10.864
0.062,-0.016,0.959,-5.798,1.587,9.705
0.063,-0.04,0.954,-2.625,1.892,8.545
0.06,-0.059,0.956,-1.282,1.709,7.935
0.06,-0.077,0.963,-1.587,1.099,7.69
0.053,-0.083,0.968,-2.93,0.61,7.385
0.052,-0.07,0.971,-4.944,0.122,7.019
0.052,-0.055,0.972,-7.202,-0.427,6.775
0.046,-0.038,0.969,-8.606,-0.916,6.287
0.039,-0.015,0.97,-8.972,-1.343,5.615
0.028,-0.008,0.97,-8.362,-1.282,4.639
0.02,-0.003,0.965,-7.263,-1.221,3.845
0.016,0.006,0.964,-6.226,-1.099,3.296
0.015,0.003,0.968,-5.127,-1.099,2.502
0.012,-0.004,0.979,-3.662,-0.793,1.404
0.01,-0.017,0.985,-2.136,-0.793,0.427
0.007,-0.036,0.987,-1.16,-0.61,-0.061
0.009,-0.041,0.986,-1.038,-0.61,0.122
0.008,-0.036,0.986,-1.465,-0.793,0.183
0.006,-0.031,0.983,-1.282,-0.977,-0.183
0.007,-0.019,0.99,-0.671,-0.793,-0.427
0.011,-0.027,0.988,-0.244,-0.488,-0.549
0.011,-0.035,0.989,0,-0.183,-0.61
0.012,-0.036,0.988,-0.61,-0.122,-0.427
0.015,-0.042,0.983,-1.648,-0.305,-0.549
0.022,-0.042,0.982,-2.747,-0.549,-0.732
0.024,-0.041,0.992,-3.662,-0.854,-0.916
0.022,-0.044,0.996,-3.967,-1.282,-1.221
0.02,-0.044,0.996,-3.601,-1.465,-1.587
0.019,-0.044,0.991,-2.502,-1.404,-1.831
0.023,-0.046,0.992,-1.587,-1.038,-1.953
0.026,-0.049,0.99,-1.343,-0.977,-1.953
0.029,-0.049,0.987,-1.343,-0.977,-1.892
0.029,-0.052,0.984,-1.404,-0.854,-1.709
0.032,-0.054,0.982,-1.77,-0.732,-1.526
0.594,0.595,0.744,-43.701,-19.958,-111.084
0.593,0.616,0.725,-46.875,-25.33,-118.53
0.529,0.667,0.71,-46.204,-31.921,-125.549
0.494,0.692,0.69,-38.452,-35.217,-133.118
0.51,0.674,0.685,-27.405,-36.377,-141.357
0.494,0.632,0.679,-17.639,-38.513,-148.743
0.483,0.575,0.673,-10.071,-40.71,-154.724
0.476,0.521,0.665,-4.7,-42.908,-159.851
0.449,0.467,0.659,-1.221,-45.532,-164.612
0.44,0.407,0.659,-0.244,-47.363,-169.739
0.426,0.376,0.656,-1.709,-49.561,-174.805
0.426,0.345,0.65,-3.662,-51.88,-180.176
0.404,0.277,0.655,-7.69,-55.542,-185.73
0.368,0.221,0.653,-14.16,-59.57,-190.674
0.345,0.177,0.658,-21.79,-63.354,-194.275
0.33,0.127,0.661,-29.785,-67.566,-197.083
0.295,0.086,0.668,-38.269,-72.144,-199.524
0.277,0.061,0.671,-46.692,-76.782,-201.477
0.244,0.062,0.683,-52.368,-81.665,-203.857
0.223,0.072,0.707,-52.673,-85.449,-206.482
0.184,0.061,0.731,-47.302,-88.44,-209.9
0.134,0.022,0.763,-39.49,-89.783,-213.867
0.103,-0.026,0.788,-32.837,-88.745,-216.675
0.078,-0.06,0.806,-25.879,-87.28,-218.384
0.046,-0.104,0.812,-19.226,-86.121,-218.872
0.015,-0.156,0.802,-15.137,-85.876,-218.872
-0.003,-0.241,0.811,-12.939,-85.815,-217.896
-0.058,-0.332,0.828,-13.55,-87.463,-216.37
-0.124,-0.436,0.865,-16.296,-88.989,-213.989
-0.174,-0.59,0.912,-17.7,-88.074,-209.778
-0.2,-0.741,0.954,-21.667,-85.266,-201.843
-0.201,-0.802,1.005,-29.236,-81.604,-190.491
-0.18,-0.787,1.061,-39.673,-78.613,-177.49
-0.148,-0.71,1.109,-47.485,-75.928,-165.649
-0.15,-0.609,1.139,-52.307,-73.486,-155.212
-0.17,-0.531,1.142,-55.359,-69.397,-147.034
-0.141,-0.474,1.111,-54.443,-63.232,-138.855
-0.102,-0.423,1.07,-48.096,-56.885,-131.226
-0.089,-0.394,1.04,-38.391,-52.002,-124.878
-0.077,-0.381,1.005,-28.198,-47.18,-118.347
-0.062,-0.381,0.974,-19.775,-42.786,-111.328
-0.041,-0.392,0.961,-12.634,-39.185,-104.431
-0.036,-0.41,0.975,-7.507,-36.804,-98.267
-0.045,-0.443,1.002,-5.981,-35.4,-92.712
-0.06,-0.487,1.028,-5.554,-33.508,-86.182
-0.046,-0.478,1.015,-4.944,-31.067,-77.393
-0.068,-0.301,1.071,4.944,-31.25,-69.519
-0.033,-0.559,1.155,5.554,-25.635,-63.599
-0.016,-0.556,1.219,13.245,-20.264,-48.95
0.001,-0.51,1.325,23.01,-15.686,-40.161
0.005,-0.708,1.333,18.982,-6.775,-32.288
0.056,-0.596,1.284,11.597,-1.892,-19.47
0.092,-0.485,1.214,6.409,0.916,-13
0.1,-0.444,1.145,3.052,3.418,-9.155
0.125,-0.409,1.093,-1.221,5.188,-4.089
0.147,-0.389,1.044,-6.531,5.676,0.977
0.164,-0.38,1,-14.465,4.944,5.432
0.175,-0.342,0.97,-22.095,3.479,9.155
0.183,-0.306,0.951,-28.931,1.221,11.108
0.189,-0.281,0.943,-35.889,-1.465,12.329
0.19,-0.253,0.93,-42.419,-4.578,13.367
0.185,-0.217,0.939,-46.997,-7.874,13.733
0.167,-0.185,0.949,-48.279,-10.986,13.55
0.148,-0.151,0.959,-47.302,-13.184,13.306
0.138,-0.118,0.974,-45.654,-14.343,13.794
0.132,-0.104,0.989,-43.396,-14.709,14.465
0.123,-0.096,1,-41.077,-14.404,14.954
0.114,-0.089,1.005,-39.49,-13.916,15.625
0.104,-0.083,1.01,-37.415,-13.489,15.747
0.099,-0.074,1.001,-35.217,-12.756,15.015
0.103,-0.065,0.994,-32.593,-11.78,13.794
0.114,-0.054,0.992,-30.945,-11.169,12.756
0.118,-0.041,0.992,-29.724,-10.681,11.658
0.116,-0.028,0.985,-28.442,-10.437,10.071
0.106,-0.015,0.974,-26.917,-10.254,8.179
0.098,-0.004,0.964,-24.902,-9.644,6.592
0.094,0.007,0.95,-22.156,-8.667,4.761
0.101,0.012,0.936,-19.165,-8.179,3.235
0.11,0.01,0.921,-16.296,-7.812,1.587
0.11,-0.001,0.93,-15.137,-8.728,0.061
0.099,-0.004,0.927,-12.451,-9.888,-2.075
0.089,-0.022,0.935,-10.498,-10.132,-3.54
0.081,-0.033,0.943,-9.705,-10.864,-4.578
0.077,-0.043,0.953,-9.216,-11.353,-5.31
0.075,-0.055,0.958,-8.545,-11.536,-6.165
0.075,-0.076,0.965,-9.46,-11.597,-6.348
0.074,-0.072,0.974,-11.414,-11.963,-5.981
0.068,-0.062,0.993,-12.817,-12.451,-5.859
0.06,-0.06,1.009,-13.733,-12.268,-5.798
0.052,-0.062,1.023,-14.221,-11.475,-5.432
0.043,-0.061,1.031,-14.343,-10.498,-4.883
0.032,-0.053,1.036,-13.977,-9.033,-4.028
0.026,-0.046,1.034,-12.878,-7.568,-3.296
0.027,-0.034,1.022,-11.108,-6.104,-2.625
0.035,-0.028,1.015,-8.789,-4.7,-2.319
0.041,-0.028,1.007,-7.202,-3.601,-1.831
0.044,-0.026,1.001,-6.104,-3.357,-1.709
0.042,-0.029,0.997,-5.554,-3.052,-1.648
0.039,-0.03,0.994,-5.798,-2.502,-1.404
0.036,-0.02,0.99,-6.165,-1.953,-0.977
0.037,-0.007,0.983,-6.226,-1.465,-0.977
0.042,0.001,0.974,-5.92,-1.282,-0.916
0.045,0.004,0.969,-5.432,-1.221,-1.16
0.049,0.006,0.967,-4.822,-1.404,-1.404
0.049,0.008,0.967,-3.784,-1.77,-1.892
0.049,0.007,0.967,-2.869,-2.197,-2.319
0.047,0.001,0.969,-2.319,-2.319,-2.808
0.046,-0.005,0.969,-1.465,-2.319,-3.113
0.046,-0.009,0.972,-0.793,-2.197,-3.174
0.048,-0.016,0.975,-0.183,-2.136,-3.052
0.053,-0.025,0.979,-0.305,-2.075,-2.808
0.054,-0.031,0.98,-1.099,-2.441,-2.502
0.052,-0.028,0.984,-1.892,-2.747,-2.502
0.047,-0.024,0.987,-2.014,-3.113,-2.38
0.047,-0.028,0.985,-1.77,-2.93,-2.014
0.046,-0.029,0.986,-1.709,-2.808,-1.709
0.055,-0.03,0.99,-2.502,-2.686,-0.854
0.056,-0.029,0.996,-4.089,-2.747,-0.305
0.053,-0.021,0.999,-5.554,-3.052,0.061
0.553,0.677,0.778,15.381,-9.521,-73.242
0.537,0.646,0.792,35.522,-10.986,-78.674
0.527,0.568,0.821,52.246,-15.442,-81.36
0.507,0.49,0.879,57.434,-17.578,-85.022
0.497,0.437,0.929,53.955,-16.174,-91.248
0.49,0.384,0.939,44.861,-15.442,-97.961
0.497,0.38,0.93,32.166,-13.489,-105.408
0.49,0.432,0.904,20.935,-11.047,-113.098
0.471,0.481,0.874,14.282,-8.423,-120.544
0.442,0.49,0.853,11.108,-5.249,-128.174
0.432,0.475,0.816,9.338,-1.038,-136.536
0.434,0.464,0.811,10.803,2.563,-144.47
0.424,0.417,0.806,10.864,5.981,-150.757
0.429,0.347,0.79,6.775,9.277,-157.227
0.436,0.293,0.78,0.916,11.353,-162.72
0.435,0.257,0.781,-6.287,12.878,-167.175
0.444,0.214,0.767,-13,13.611,-171.326
0.437,0.157,0.747,-20.386,13.672,-175.354
0.434,0.143,0.727,-26.917,13.062,-179.016
0.425,0.161,0.702,-28.87,12.085,-181.885
0.439,0.135,0.669,-31.128,11.108,-185.608
0.437,0.087,0.663,-31.25,9.277,-188.66
0.43,0.052,0.673,-30.396,7.874,-191.284
0.428,0.029,0.69,-30.396,6.714,-193.298
0.429,0.009,0.713,-31.128,5.493,-195.374
0.425,-0.009,0.715,-29.907,4.456,-197.754
0.405,-0.027,0.711,-25.818,3.54,-200.562
0.385,-0.046,0.699,-21.423,2.808,-203.186
0.373,-0.084,0.69,-15.442,2.502,-205.811
0.353,-0.129,0.7,-7.08,2.747,-208.74
0.353,-0.155,0.708,0.549,3.723,-211.426
0.348,-0.172,0.705,3.662,4.089,-213.501
0.334,-0.199,0.706,2.93,4.089,-216.064
0.325,-0.259,0.691,1.404,3.113,-218.506
0.29,-0.33,0.673,0.488,1.587,-220.398
0.255,-0.385,0.669,-2.075,0.671,-221.191
0.248,-0.416,0.656,-4.639,-0.244,-221.375
0.222,-0.449,0.625,-2.93,-1.648,-220.886
0.193,-0.519,0.587,2.502,-2.869,-220.398
0.196,-0.612,0.588,9.888,-3.784,-218.872
0.177,-0.673,0.602,14.771,-3.784,-215.088
0.178,-0.698,0.623,13.184,-4.944,-210.083
0.158,-0.729,0.667,6.592,-8.24,-205.75
0.112,-0.772,0.697,-2.136,-10.925,-201.782
0.086,-0.796,0.708,-11.719,-12.878,-197.693
0.074,-0.79,0.695,-23.193,-13.916,-192.566
0.076,-0.801,0.676,-34.79,-14.16,-186.218
0.09,-0.831,0.648,-42.175,-14.648,-179.443
0.088,-0.845,0.628,-48.401,-16.479,-172.791
0.114,-0.853,0.61,-56.763,-18.127,-166.199
0.132,-0.842,0.605,-64.331,-20.752,-159.729
0.149,-0.803,0.6,-71.289,-24.17,-153.931
0.151,-0.739,0.598,-74.463,-29.175,-149.048
0.125,-0.693,0.615,-74.402,-34.18,-145.325
0.084,-0.637,0.649,-75.5,-37.903,-141.907
0.041,-0.597,0.702,-75.134,-40.039,-138.062
0.026,-0.606,0.76,-72.754,-40.283,-133.545
0.03,-0.642,0.815,-70.129,-38.757,-128.357
0.035,-0.666,0.865,-68.359,-36.804,-122.437
0.039,-0.661,0.899,-66.223,-34.302,-116.516
0.043,-0.645,0.918,-61.096,-31.128,-111.816
0.053,-0.649,0.918,-52.979,-27.832,-108.093
0.051,-0.65,0.909,-46.509,-25.269,-104.004
0.044,-0.646,0.893,-42.725,-23.193,-99.426
0.045,-0.65,0.872,-40.466,-21.729,-94.727
0.057,-0.664,0.856,-40.894,-21.484,-89.294
0.069,-0.68,0.866,-45.532,-22.583,-83.618
0.083,-0.686,0.886,-52.795,-24.536,-77.759
0.077,-0.659,0.911,-55.969,-26.917,-72.632
0.055,-0.629,0.941,-58.96,-28.137,-67.017
0.048,-0.627,0.968,-63.538,-28.748,-61.462
0.025,-0.605,0.985,-67.932,-29.053,-56.152
0.016,-0.575,0.975,-71.533,-28.503,-50.781
0.003,-0.473,1.003,-68.359,-28.076,-45.898
-0.004,-0.476,1.016,-61.89,-25.635,-42.786
-0.002,-0.512,1.008,-56.274,-22.339,-37.659
0.014,-0.482,0.98,-49.927,-19.653,-32.043
0.012,-0.478,0.96,-45.288,-18.494,-28.076
-0.002,-0.474,0.953,-42.603,-17.822,-24.17
0.005,-0.439,0.928,-40.283,-16.785,-19.836
-0.017,-0.355,0.984,-32.166,-16.785,-17.334
-0.027,-0.492,1.035,-23.071,-15.015,-15.625
-0.01,-0.511,1.097,-17.456,-8.362,-5.371
0.036,-0.481,1.184,-16.052,-4.822,-1.953
0.029,-0.45,1.178,-12.268,-1.77,0.977
0.014,-0.424,1.178,-6.287,2.014,4.15
0.011,-0.379,1.178,6.47,6.165,7.324
0.019,-0.379,1.161,21.912,10.01,9.46
0.023,-0.417,1.121,32.959,12.207,10.803
0.025,-0.469,1.064,40.222,13.367,12.024
0.014,-0.545,1.007,43.091,13.916,13.794
0.01,-0.577,0.946,39.063,14.099,17.334
0.013,-0.555,0.897,29.48,13.306,21.545
0.025,-0.525,0.857,16.968,11.658,25.452
0.043,-0.503,0.827,3.357,9.216,28.931
0.067,-0.467,0.821,-9.705,6.226,31.555
0.081,-0.411,0.823,-22.827,2.869,32.471
0.083,-0.374,0.837,-32.227,-0.671,31.433
0.079,-0.347,0.847,-37.903,-3.845,30.151
0.071,-0.304,0.865,-39.307,-6.409,28.564
0.068,-0.284,0.872,-38.208,-7.935,26.123
0.064,-0.28,0.877,-36.865,-8.789,23.682
0.052,-0.274,0.898,-33.386,-9.155,21.545
0.045,-0.277,0.913,-30.334,-8.667,19.409
0.046,-0.272,0.917,-29.053,-7.751,17.578
0.043,-0.251,0.917,-28.137,-7.324,16.052
0.045,-0.225,0.91,-26.489,-6.714,14.343
0.039,-0.208,0.906,-25.085,-6.531,11.902
0.034,-0.204,0.905,-24.231,-6.409,10.071
0.035,-0.198,0.899,-23.376,-6.104,8.728
0.031,-0.186,0.899,-20.569,-5.676,7.019
0.031,-0.187,0.907,-17.395,-5.31,5.676
0.03,-0.205,0.916,-16.174,-4.639,4.517
0.03,-0.208,0.912,-15.991,-4.028,3.113
0.031,-0.201,0.911,-15.015,-4.211,-0.732
0.017,-0.218,0.928,-10.986,-4.028,-1.953
0.013,-0.234,0.942,-10.559,-3.723,-2.258
0.012,-0.248,0.962,-11.108,-3.235,-2.319
0.014,-0.252,0.976,-11.78,-2.747,-2.136
0.504,0.607,0.918,-5.737,19.226,-47.302
0.476,0.615,0.9,-3.601,21.851,-54.382
0.484,0.59,0.891,-2.93,25.33,-61.89
0.49,0.574,0.876,-5.371,27.527,-69.946
0.486,0.558,0.868,-8.179,29.175,-77.576
0.484,0.548,0.849,-27.954,31.372,-92.041
0.485,0.585,0.826,-19.165,32.715,-100.769
0.467,0.623,0.804,-18.738,32.654,-109.741
0.456,0.652,0.773,-14.526,33.63,-117.737
0.455,0.656,0.739,-7.324,35.4,-125.488
0.456,0.625,0.709,0,36.743,-133.667
0.462,0.564,0.685,6.104,37.842,-140.991
0.464,0.482,0.671,9.766,38.757,-147.156
0.482,0.395,0.653,10.132,38.635,-152.1
0.495,0.335,0.642,9.277,37.476,-157.41
0.499,0.284,0.641,6.592,36.133,-162.415
0.505,0.247,0.64,0.488,34.119,-166.87
0.518,0.192,0.645,-9.46,31.555,-170.898
0.578,0.175,0.625,-22.095,28.992,-177.429
0.548,0.155,0.603,-31.616,21.851,-178.223
0.529,0.115,0.595,-40.283,16.907,-179.932
0.546,0.122,0.588,-48.34,12.268,-182.556
0.565,0.154,0.58,-53.345,7.141,-185.486
0.563,0.158,0.562,-54.688,1.282,-189.941
0.537,0.139,0.557,-53.467,-5.127,-194.946
0.517,0.114,0.526,-49.316,-10.925,-199.219
0.49,0.074,0.522,-41.26,-16.479,-203.369
0.459,0.022,0.539,-32.41,-20.569,-206.97
0.442,-0.042,0.536,-26.611,-24.048,-209.961
0.427,-0.093,0.529,-23.315,-27.832,-212.524
0.411,-0.133,0.505,-20.569,-32.043,-214.783
0.376,-0.172,0.509,-15.381,-37.109,-216.919
0.334,-0.19,0.503,-8.179,-41.443,-217.773
0.313,-0.209,0.511,-2.747,-44.922,-218.506
0.306,-0.253,0.534,1.526,-47.607,-219.238
0.298,-0.354,0.566,3.906,-50.842,-219.849
0.276,-0.477,0.616,-0.488,-54.565,-219.482
0.24,-0.577,0.679,-13.977,-58.533,-217.712
0.208,-0.642,0.746,-30.64,-61.89,-215.881
0.2,-0.679,0.787,-45.715,-64.087,-214.661
0.186,-0.696,0.802,-56.396,-65.125,-213.013
0.162,-0.676,0.796,-60.486,-65.796,-210.205
0.115,-0.606,0.762,-56.458,-65.796,-206.299
0.094,-0.559,0.716,-50.537,-65.552,-201.538
0.055,-0.541,0.689,-44.678,-66.467,-196.228
0.032,-0.571,0.698,-42.603,-67.871,-188.721
-0.01,-0.624,0.724,-43.518,-70.251,-181.091
-0.042,-0.689,0.757,-48.889,-71.411,-172.668
-0.033,-0.76,0.801,-58.044,-71.228,-163.391
-0.027,-0.804,0.842,-67.749,-70.496,-154.236
-0.017,-0.816,0.873,-77.332,-69.763,-145.569
-0.014,-0.797,0.907,-81.848,-68.787,-137.756
-0.012,-0.757,0.943,-81.116,-66.467,-130.066
-0.011,-0.717,0.976,-78.552,-63.599,-122.559
-0.013,-0.679,0.967,-73.425,-59.998,-115.173
-0.006,-0.637,0.935,-71.045,-56.641,-107.605
-0.017,-0.597,0.949,-73.547,-54.871,-99.365
-0.043,-0.578,0.976,-76.111,-52.795,-90.515
-0.055,-0.573,1.005,-76.66,-49.255,-81.36
-0.034,-0.569,1.033,-74.341,-44.434,-72.083
-0.01,-0.556,1.053,-71.533,-40.283,-63.293
-0.013,-0.536,1.062,-67.749,-37.048,-55.664
-0.018,-0.511,1.053,-63.354,-33.569,-48.95
0.003,-0.475,1.033,-57.678,-29.602,-42.847
0.026,-0.442,1.012,-52.673,-26.978,-37.354
0.045,-0.416,1,-50.354,-25.696,-32.593
0.062,-0.397,1.001,-50.415,-25.208,-28.381
0.075,-0.384,1.003,-51.27,-25.757,-24.78
0.079,-0.365,1.007,-52.429,-27.039,-22.217
0.077,-0.334,1.017,-53.772,-28.503,-19.775
0.077,-0.301,1.033,-54.932,-29.724,-17.639
0.074,-0.279,1.037,-55.054,-30.64,-16.235
0.072,-0.267,1.039,-52.429,-31.25,-15.503
0.07,-0.246,1.051,-49.255,-31.494,-14.526
0.109,-0.242,1.055,-45.593,-32.471,-14.465
0.018,-0.221,1.066,-43.701,-35.217,-16.113
-0.019,-0.228,1.056,-41.138,-33.447,-13.977
-0.073,-0.164,1.115,-35.828,-31.372,-11.353
-0.076,-0.211,1.26,-37.659,-23.926,-11.78
-0.04,-0.366,1.217,-32.288,-17.456,-7.08
-0.015,-0.272,1.279,-25.696,-13.916,-2.563
0.002,-0.24,1.289,-16.968,-7.202,-1.465
0.015,-0.209,1.232,-9.216,-1.892,-1.282
0.026,-0.212,1.141,-5.981,1.465,-0.977
0.03,-0.192,1.09,-6.348,2.869,0.549
0.023,-0.158,1.081,-6.104,3.113,1.709
0.007,-0.141,1.065,-2.93,3.479,1.831
-0.011,-0.143,1.056,2.686,5.005,1.953
-0.02,-0.157,1.048,8.362,7.446,3.357
-0.008,-0.186,1.034,12.756,9.827,5.554
0.011,-0.211,1.017,15.686,11.475,7.507
0.025,-0.224,1,16.357,11.78,8.606
0.031,-0.228,0.99,14.465,10.742,8.911
0.037,-0.235,0.972,11.353,9.277,8.972
0.037,-0.237,0.972,6.958,7.507,8.911
0.037,-0.222,0.96,1.831,6.165,9.399
0.043,-0.216,0.948,-1.404,4.7,9.766
0.042,-0.215,0.932,-3.052,3.662,9.949
0.043,-0.193,0.926,-4.15,2.441,10.193
0.047,-0.173,0.923,-5.127,1.648,10.071
0.048,-0.163,0.921,-5.92,0.732,9.644
0.047,-0.16,0.919,-6.531,0.122,8.911
0.042,-0.163,0.917,-6.897,-0.488,8.24
0.036,-0.161,0.916,-7.446,-0.977,7.935
0.032,-0.16,0.916,-7.812,-1.465,7.629
0.028,-0.157,0.922,-7.996,-1.77,7.385
0.026,-0.155,0.931,-8.667,-1.77,7.324
0.025,-0.155,0.939,-9.338,-1.831,7.019
0.019,-0.153,0.949,-10.193,-1.648,6.531
0.014,-0.143,0.953,-10.681,-1.282,6.042
0.012,-0.134,0.951,-10.559,-0.854,5.554
0.012,-0.126,0.949,-9.338,-0.427,4.883
0.012,-0.123,0.949,-7.019,-0.122,4.15
0.009,-0.125,0.952,-4.578,0.122,3.357
0.006,-0.128,0.955,-2.38,0.427,2.686
0.007,-0.137,0.955,-0.549,0.793,2.075
0.012,-0.138,0.958,0.366,1.099,1.526
0.018,-0.138,0.961,0.793,1.16,1.282
0.022,-0.138,0.957,0.61,0.916,0.793
0.442,0.841,0.744,1.587,13.062,-50.72
0.434,0.831,0.735,8.301,15.503,-58.777
0.436,0.795,0.75,15.076,17.944,-67.81
0.442,0.757,0.758,15.259,20.386,-76.599
0.454,0.719,0.738,11.475,19.47,-84.229
0.453,0.687,0.719,4.15,16.907,-92.041
0.461,0.676,0.705,-7.385,14.709,-98.938
0.45,0.667,0.684,-22.461,12.268,-106.018
0.457,0.682,0.674,-37.109,11.047,-114.624
0.469,0.668,0.637,-51.086,9.094,-122.742
0.449,0.66,0.603,-63.477,6.042,-131.165
0.427,0.698,0.576,-70.984,3.174,-140.076
0.436,0.755,0.547,-71.411,1.282,-150.269
0.428,0.793,0.521,-65.796,-0.793,-160.217
0.418,0.799,0.505,-56.763,-2.38,-169.922
0.414,0.78,0.503,-45.105,-3.54,-178.955
0.385,0.722,0.525,-32.532,-4.028,-187.195
0.38,0.64,0.547,-21.301,-3.357,-195.19
0.376,0.558,0.566,-12.329,-2.441,-201.416
0.377,0.464,0.576,-7.385,-0.977,-206.726
0.371,0.367,0.568,-3.54,-0.61,-211.548
0.368,0.273,0.563,0.793,-0.183,-215.942
0.381,0.204,0.543,0.366,0.793,-219.666
0.395,0.168,0.535,-5.432,0.61,-222.656
0.391,0.145,0.538,-14.221,-1.465,-225.647
0.391,0.116,0.514,-22.705,-4.333,-228.821
0.347,0.096,0.549,-29.358,-7.69,-231.995
0.372,0.086,0.468,-36.682,-9.216,-235.291
0.409,0.088,0.429,-39.001,-14.404,-238.098
0.383,0.068,0.43,-41.626,-21.851,-238.403
0.317,-0.041,0.464,-41.321,-27.649,-237.976
0.344,-0.257,0.494,-36.865,-30.823,-234.802
0.456,-0.44,0.528,-30.64,-33.936,-227.661
0.532,-0.493,0.594,-25.269,-39.856,-217.896
0.474,-0.472,0.647,-19.714,-47.974,-210.876
0.355,-0.447,0.674,-15.137,-54.993,-208.13
0.295,-0.405,0.725,-11.841,-57.434,-206.055
0.306,-0.414,0.746,-4.517,-57.068,-203.369
0.343,-0.478,0.715,6.531,-56.946,-201.416
0.332,-0.556,0.682,12.207,-58.716,-198.853
0.316,-0.615,0.64,5.981,-60.364,-194.519
0.312,-0.639,0.625,-4.395,-61.279,-187.866
0.341,-0.68,0.642,-14.465,-62.561,-180.664
0.328,-0.711,0.672,-20.813,-64.27,-172.485
0.326,-0.74,0.7,-23.743,-65.735,-164.246
0.325,-0.727,0.743,-27.466,-66.772,-157.288
0.303,-0.693,0.78,-31.677,-68.176,-152.771
0.294,-0.654,0.804,-35.217,-70.679,-149.17
0.277,-0.647,0.839,-36.56,-73.059,-145.325
0.253,-0.705,0.866,-34.973,-74.707,-140.076
0.239,-0.789,0.898,-36.804,-74.036,-132.08
0.266,-0.823,0.907,-39.307,-73.12,-123.718
0.228,-0.815,0.926,-42.908,-74.158,-115.112
0.235,-0.806,0.943,-45.776,-74.463,-105.347
0.211,-0.76,0.97,-49.316,-76.172,-95.154
0.238,-0.728,0.984,-52.49,-77.698,-85.51
0.194,-0.706,1.014,-56.519,-79.712,-76.782
0.185,-0.7,1.049,-60.486,-78.308,-66.833
0.192,-0.716,1.09,-63.416,-74.89,-57.068
0.216,-0.701,1.121,-64.88,-69.275,-48.218
0.277,-0.668,1.136,-63.416,-63.354,-40.71
0.306,-0.626,1.079,-59.875,-58.167,-34.79
0.245,-0.426,1.173,-48.096,-55.115,-33.875
0.26,-0.536,1.195,-40.222,-45.532,-34.973
0.269,-0.614,1.27,-21.973,-35.217,-28.381
0.284,-0.744,1.279,-12.817,-23.254,-24.048
0.254,-0.692,1.244,-10.742,-14.771,-18.86
0.235,-0.664,1.207,-11.902,-8.24,-16.602
0.214,-0.593,1.184,-14.587,-2.625,-14.832
0.203,-0.519,1.129,-13.855,1.831,-12.817
0.21,-0.478,1.05,-10.193,5.859,-10.498
0.217,-0.439,0.969,-6.836,8.362,-7.507
0.219,-0.402,0.893,-4.517,9.583,-4.333
0.22,-0.388,0.836,-3.113,9.521,-1.892
0.225,-0.387,0.799,-4.211,8.362,0.488
0.235,-0.381,0.768,-6.958,5.859,2.441
0.241,-0.376,0.745,-10.315,2.38,3.845
0.244,-0.35,0.742,-14.893,-1.404,4.822
0.241,-0.314,0.76,-19.104,-5.432,5.066
0.239,-0.299,0.787,-22.095,-8.728,4.944
0.239,-0.287,0.824,-23.376,-11.353,4.639
0.235,-0.275,0.867,-24.048,-13.245,3.967
0.227,-0.261,0.908,-23.804,-14.099,3.357
0.222,-0.255,0.937,-22.705,-14.16,2.38
0.217,-0.251,0.961,-20.264,-13.611,1.404
0.21,-0.261,0.976,-16.968,-12.329,0.427
0.206,-0.276,0.971,-13.977,-10.864,-0.488
0.205,-0.278,0.954,-10.986,-9.888,-1.221
0.201,-0.29,0.938,-6.714,-9.644,-2.197
0.195,-0.304,0.931,-3.235,-9.216,-2.869
0.194,-0.315,0.924,-1.77,-8.85,-3.113
0.193,-0.319,0.914,-1.038,-9.094,-3.235
0.191,-0.324,0.919,-0.854,-9.399,-3.418
0.187,-0.317,0.944,-2.441,-9.644,-3.235
0.191,-0.316,0.97,-4.517,-9.399,-3.052
0.195,-0.324,0.994,-5.554,-8.789,-2.625
0.194,-0.335,1.005,-5.615,-7.874,-2.014
0.194,-0.334,1.01,-5.188,-6.592,-1.16
0.192,-0.319,1.007,-3.906,-4.944,-0.488
0.192,-0.312,0.999,-1.953,-3.235,0.122
0.193,-0.317,0.988,0.488,-1.587,0.916
0.195,-0.318,0.974,2.808,-0.183,1.587
0.196,-0.313,0.959,5.066,0.549,2.136
0.198,-0.312,0.945,7.446,1.16,2.38
0.2,-0.303,0.933,9.583,1.404,2.258
0.202,-0.292,0.921,11.108,1.587,1.648
0.2,-0.293,0.914,12.573,1.587,0.854
0.202,-0.316,0.899,12.085,1.77,0.305
0.203,-0.317,0.892,9.521,1.465,0.305
0.2,-0.31,0.897,7.69,0.671,0.061
0.196,-0.305,0.909,5.737,0.244,0.061
0.193,-0.3,0.922,3.479,-0.061,-0.061
0.189,-0.306,0.935,1.587,-0.244,0.061
0.189,-0.311,0.947,0.305,-0.122,0.244
0.187,-0.31,0.952,0,0.366,0.732
0.189,-0.309,0.949,0.549,0.61,0.854
0.193,-0.307,0.938,1.343,1.16,0.854
0.198,-0.316,0.924,2.869,1.526,0.977
0.201,-0.33,0.912,4.333,1.465,1.038
-0.332,-1.294,0.652,-36.133,-41.931,-196.96
-0.321,-1.288,0.756,-56.152,-45.776,-180.481
-0.262,-1.21,0.823,-78.003,-47.363,-164.49
-0.196,-1.088,0.852,-94.238,-48.523,-149.414
-0.133,-0.981,0.859,-102.539,-49.072,-136.414
-0.082,-0.896,0.867,-105.469,-48.828,-125
-0.044,-0.822,0.86,-102.722,-48.34,-113.831
-0.007,-0.763,0.844,-98.45,-47.852,-103.21
0.02,-0.719,0.843,-95.093,-48.462,-93.994
0.016,-0.695,0.854,-94.421,-49.744,-87.341
0.005,-0.666,0.892,-97.29,-51.514,-82.397
-0.009,-0.62,0.944,-100.952,-53.528,-78.186
-0.03,-0.586,0.988,-102.966,-54.871,-74.524
-0.049,-0.559,1.023,-103.088,-54.626,-71.106
-0.072,-0.501,1.064,-97.046,-53.284,-67.81
-0.084,-0.453,1.082,-86.426,-50.354,-64.697
-0.101,-0.408,1.082,-71.167,-46.143,-61.89
-0.104,-0.411,0.994,-54.81,-41.382,-58.411
-0.192,-0.182,1.001,-30.518,-38.452,-54.443
-0.226,-0.33,1.234,-15.198,-29.236,-53.65
-0.162,-0.723,1.326,0.854,-14.832,-41.565
-0.143,-0.756,1.347,8.118,-4.333,-24.292
-0.112,-0.687,1.293,10.925,3.662,-13.245
-0.079,-0.612,1.229,12.817,8.606,-6.775
-0.048,-0.558,1.146,14.771,10.803,-2.38
-0.003,-0.52,1.085,16.602,11.536,1.343
0.008,-0.486,1.043,16.541,9.949,4.15
0.001,-0.461,1.019,11.841,7.324,6.714
0,-0.424,1.005,4.15,4.272,9.338
0.002,-0.421,0.981,-5.066,1.526,10.803
0.006,-0.456,0.953,-18.86,-0.916,11.658
0.009,-0.459,0.934,-35.217,-3.845,13.062
0.005,-0.396,0.922,-49.072,-7.324,13.062
-0.013,-0.311,0.93,-54.993,-10.254,11.658
-0.012,-0.288,0.928,-55.725,-11.353,10.193
-0.016,-0.284,0.935,-52.49,-12.146,7.935
-0.018,-0.265,0.941,-48.645,-11.963,6.348
-0.025,-0.238,0.951,-43.762,-11.536,4.822
-0.029,-0.221,0.962,-37.292,-10.681,3.54
-0.028,-0.216,0.969,-29.785,-9.216,2.502
-0.027,-0.229,0.974,-22.644,-7.324,1.709
-0.03,-0.252,0.978,-17.273,-5.005,1.587
-0.012,-0.262,0.973,-12.939,-2.747,2.38
-0.004,-0.272,0.961,-10.132,-1.16,2.747
-0.001,-0.274,0.945,-9.033,-0.061,2.93
0,-0.27,0.921,-8.545,0.427,2.93
0.003,-0.261,0.897,-7.874,0.366,2.686
0.002,-0.259,0.88,-6.592,-0.122,1.831
0,-0.26,0.866,-5.981,-0.732,1.038
0.004,-0.259,0.866,-5.859,-1.831,0.488
0.005,-0.262,0.877,-6.409,-2.869,-0.122
0.004,-0.259,0.89,-6.47,-3.784,-1.16
-0.001,-0.261,0.899,-6.165,-4.395,-2.136
-0.007,-0.263,0.906,-6.287,-4.639,-2.747
-0.016,-0.265,0.906,-6.226,-4.517,-3.113
-0.025,-0.273,0.904,-6.104,-4.578,-3.174
-0.03,-0.274,0.908,-5.554,-4.456,-3.174
-0.033,-0.27,0.918,-4.272,-4.272,-2.93
-0.033,-0.276,0.92,-2.563,-3.906,-2.625
-0.035,-0.285,0.915,-1.282,-3.601,-2.38
-0.027,-0.291,0.918,-0.793,-3.601,-1.831
-0.02,-0.3,0.921,-2.38,-3.784,-1.099
-0.02,-0.317,0.93,-4.944,-4.15,-0.488
-0.027,-0.325,0.941,-7.874,-4.517,0.427
-0.033,-0.315,0.95,-10.315,-4.456,1.404
-0.038,-0.296,0.954,-12.329,-4.333,2.38
-0.04,-0.276,0.959,-13.733,-4.028,3.052
-0.035,-0.261,0.966,-14.343,-3.601,3.357
-0.028,-0.255,0.974,-13.489,-3.174,3.479
-0.025,-0.258,0.974,-12.817,-2.808,3.54
-0.025,-0.256,0.975,-12.207,-2.136,3.54
-0.021,-0.241,0.974,-10.864,-1.892,3.906
-0.014,-0.233,0.974,-7.812,-2.014,3.662
-0.014,-0.238,0.976,-5.005,-2.014,3.052
-0.017,-0.253,0.983,-3.967,-2.014,2.38
-0.018,-0.264,0.988,-4.211,-2.319,2.075
-0.019,-0.264,0.994,-5.798,-2.502,1.892
-0.022,-0.248,0.999,-6.409,-2.991,1.465
-0.03,-0.241,1.002,-5.005,-2.93,0.732
-0.036,-0.244,1.001,-3.418,-2.319,0.122
-0.04,-0.245,1.004,-2.258,-1.648,-0.122
-0.036,-0.251,0.997,-1.465,-0.732,0.183
-0.035,-0.257,0.997,-0.488,0,0.305
-0.036,-0.255,0.997,0.671,0.671,0.427
-0.036,-0.253,0.991,2.38,1.282,0.427
-0.037,-0.25,0.98,3.54,1.953,0.549
-0.037,-0.25,0.963,4.578,2.502,0.732
-0.031,-0.262,0.947,5.249,2.686,0.854
-0.022,-0.279,0.948,4.211,2.441,1.404
-0.018,-0.282,0.954,2.075,1.648,1.953
-0.022,-0.273,0.958,-0.061,0.854,1.892
-0.027,-0.265,0.957,-2.075,0.244,2.136
-0.03,-0.261,0.95,-3.54,0.122,2.38
-0.029,-0.264,0.943,-4.822,-0.122,2.747
-0.021,-0.268,0.938,-6.531,-0.366,3.418
-0.019,-0.257,0.937,-7.446,-0.732,4.028
-0.024,-0.241,0.945,-5.981,-1.526,4.028
-0.033,-0.24,0.947,-4.395,-1.465,3.601
-0.041,-0.239,0.945,-2.93,-1.343,3.479
-0.049,-0.234,0.932,-1.221,-0.977,3.418
-0.044,-0.235,0.936,-0.122,-0.671,3.418
-0.027,-0.249,0.95,-0.061,-0.061,3.54
-0.021,-0.256,0.959,-0.916,0.061,3.784
-0.029,-0.246,0.963,-1.099,-0.122,3.418
-0.04,-0.235,0.957,-0.916,0.244,3.235
-0.042,-0.238,0.945,0.305,0.732,3.174
-0.031,-0.245,0.943,0.61,1.16,3.235
-0.021,-0.249,0.943,0.061,1.404,3.479
-0.022,-0.249,0.938,-0.427,1.038,3.235
-0.027,-0.247,0.936,-0.366,0.366,2.808
-0.03,-0.245,0.94,-0.061,0.061,2.625
-0.028,-0.243,0.945,0.488,0,2.38
-0.027,-0.247,0.95,0.488,0,2.075
-0.029,-0.253,0.951,0.183,-0.122,1.648
-0.023,-0.254,0.955,-0.61,-0.244,1.648
-0.021,-0.253,0.954,-0.793,-0.366,1.587
-0.021,-0.255,0.951,-0.732,-0.366,1.587
-0.019,-0.257,0.952,-0.671,-0.427,1.526
-0.015,-0.257,0.952,-1.221,-0.549,1.77
       ,,,,,
